time,accel_x,accel_y,accel_z,gyro_x,gyro_y,gyro_z,true_speed,true_heading,true_x,true_y,true_accel_x_vehicle,true_accel_x_world,true_accel_y_world,true_accel_z_world
0.0,6.761557930520562,-0.0007396451756776987,7.562862491840448,0.016230298564080255,-0.00434153374723336,0.0026586304305081946,0.0,0.0,0.0,0.0,2.0,2.0,0.0,0.0
0.1,6.923932729894986,0.1351152093729363,7.3952880532351015,0.006425600435859647,-0.006634176928124623,0.0003427024642974315,0.2,0.0,0.020000000000000004,0.0,2.0,2.0,0.0,0.0
0.2,6.723345148303783,-0.26699203669866967,7.206971536248389,-0.004622875292409727,-0.012128311203344238,0.00814247332595274,0.4,0.0,0.06000000000000001,0.0,2.0000000000000004,2.0000000000000004,0.0,0.0
0.30000000000000004,6.550847196240695,-0.19184555520029373,7.685556526463578,-0.0012577630048653567,-0.0013247179531207616,-0.009247481862134567,0.6000000000000001,0.0,0.12000000000000002,0.0,2.0,2.0,0.0,0.0
0.4,6.605393398890099,0.03663838845647992,7.293060174511999,0.0047569801834567195,-0.008006386899188051,0.002083062502067232,0.8,0.0,0.20000000000000004,0.0,1.9999999999999996,1.9999999999999996,0.0,0.0
0.5,6.5967948157344685,0.29784172767634065,7.463684627414654,-0.009577109289559002,0.00622544912103189,-0.007208436499710222,1.0,0.0,0.30000000000000004,0.0,2.0000000000000004,2.0000000000000004,0.0,0.0
0.6000000000000001,6.718380346819591,-0.2739505185819663,7.26648130379058,0.0029686123586912354,0.005384665799954104,0.006713682811899705,1.2000000000000002,0.0,0.42000000000000004,0.0,2.0000000000000004,2.0000000000000004,0.0,0.0
0.7000000000000001,6.669703565210641,-0.025165554338393317,7.24393091257023,-0.0061984420839470864,-0.006606387709597875,0.015571222262189158,1.4000000000000001,0.0,0.56,0.0,1.9999999999999996,1.9999999999999996,0.0,0.0
0.8,6.738593551004146,-0.2444560233044101,7.514321806534563,-0.0028508228041631656,-0.008769220003059588,0.011116762888408679,1.6,0.0,0.7200000000000001,0.0,1.9999999999999996,1.9999999999999996,0.0,0.0
0.9,6.841700735943269,0.15969201786742976,7.339826582641948,-0.002092123758512146,0.0013126343140356395,0.014755451271223591,1.8,0.0,0.9000000000000001,0.0,1.9999999999999996,1.9999999999999996,0.0,0.0
1.0,6.615174671892084,-0.007848846499572567,7.29975896502444,-0.010962066240806707,0.006125258223941981,0.01856240028570823,2.0,0.0,1.1,0.0,2.0000000000000004,2.0000000000000004,0.0,0.0
1.1,6.676249289331828,0.17052993468380362,7.519954614882488,-0.005451197546051243,0.0016139560550841392,0.020380365664659693,2.2,0.0,1.32,0.0,2.0000000000000018,2.0000000000000018,0.0,0.0
1.2000000000000002,6.681676901702384,0.25469654837210093,7.072747445511883,0.00921902504375224,-0.0011295293176182878,0.0020099264953413252,2.4000000000000004,0.0,1.56,0.0,1.9999999999999996,1.9999999999999996,0.0,0.0
1.3,6.700814924049202,-0.2781353371901339,7.432758427949717,0.004571125715117464,0.012778940447415161,-0.00018270218273647425,2.6,0.0,1.82,0.0,1.9999999999999996,1.9999999999999996,0.0,0.0
1.4000000000000001,6.565776767134898,-0.055263556537680475,7.6030195287806555,0.004287511096596844,-0.007297602037670388,0.010132674331133561,2.8000000000000003,0.0,2.1,0.0,1.9999999999999996,1.9999999999999996,0.0,0.0
1.5,6.701612439971083,0.16529674857993337,7.360401247043741,-0.002276621465977682,-0.005921081531321576,-0.009635149481321187,3.0,0.0,2.4000000000000004,0.0,1.9999999999999996,1.9999999999999996,0.0,0.0
1.6,6.731468849128565,0.0591582908269834,7.466476229621713,-0.0013458713337514694,-0.01615370742050414,0.0007935467723464099,3.2,0.0,2.7200000000000006,0.0,2.0000000000000018,2.0000000000000018,0.0,0.0
1.7000000000000002,6.635643630089861,-0.10034159038324282,7.441516354375443,0.005040508568145384,0.016861859012105303,0.00674577812831839,3.4000000000000004,0.0,3.0600000000000005,0.0,1.9999999999999996,1.9999999999999996,0.0,0.0
1.8,6.725683366177291,0.008833112635074919,7.177893528830488,0.0007348612455078313,-0.0013976979005897356,0.029632421124852863,3.6,0.0,3.4200000000000004,0.0,1.9999999999999996,1.9999999999999996,0.0,0.0
1.9000000000000001,6.658196662851709,0.06523210135004187,7.460502445669558,-0.010686780376195321,0.009428228145150206,0.012519330326867742,3.8000000000000003,0.0,3.8000000000000003,0.0,1.9999999999999996,1.9999999999999996,0.0,0.0
2.0,6.805705599625334,-0.11640811821921083,7.6761283577657595,-0.013018510627922808,0.0038685709380027033,0.026904556258099788,4.0,0.0,4.2,0.0,1.9999999999999996,1.9999999999999996,0.0,0.0
2.1,6.538470358799275,-0.06494465944041578,7.480656915888489,-0.004034756541161992,-0.017506634310661327,0.005685629748060274,4.2,0.0,4.62,0.0,2.0000000000000018,2.0000000000000018,0.0,0.0
2.2,6.527705250509963,0.09103886459527724,7.327795575990273,0.016499344050175394,-0.00983253292336237,0.001779384837943244,4.4,0.0,5.0600000000000005,0.0,2.0000000000000018,2.0000000000000018,0.0,0.0
2.3000000000000003,6.809078390174329,-0.1646296474650933,7.499828201315963,0.014071427542824283,-0.018074832345612274,0.006846338585323042,4.6000000000000005,0.0,5.5200000000000005,0.0,2.0000000000000018,2.0000000000000018,0.0,0.0
2.4000000000000004,6.7260332267061385,0.13727343076659654,7.280166604493633,-0.012204566130842764,0.0032194156561689766,0.007969846732331861,4.800000000000001,0.0,6.000000000000001,0.0,1.9999999999999973,1.9999999999999973,0.0,0.0
2.5,6.724624735120757,0.07196723142454635,7.363705502888571,0.0033225369716100355,0.0009307247329868127,-0.002143514180263678,5.0,0.0,6.500000000000001,0.0,1.9999999999999973,1.9999999999999973,0.0,0.0
2.6,6.9669169842405925,0.09107493813676813,7.287013686544946,0.007565536086338297,-0.011746816702273215,0.01287084603742452,5.2,0.0,7.020000000000001,0.0,2.0000000000000018,2.0000000000000018,0.0,0.0
2.7,6.860840144419989,-0.10310234775275656,7.610215630511991,0.005127809269364983,0.0062206015999449,0.023967929826539475,5.4,0.0,7.560000000000001,0.0,2.0000000000000018,2.0000000000000018,0.0,0.0
2.8000000000000003,6.650242590168448,-0.09306042465362342,7.332282046681515,-0.007158102849654384,-0.002771017094141042,0.00841151974816644,5.6000000000000005,0.0,8.120000000000001,0.0,2.0000000000000018,2.0000000000000018,0.0,0.0
2.9000000000000004,6.728554427468378,0.14407748735540357,7.467659494907031,0.015535340771573168,-0.004646568332379561,0.03220169166589619,5.800000000000001,0.0,8.700000000000001,0.0,1.9999999999999973,1.9999999999999973,0.0,0.0
3.0,6.780900909733626,-0.10857363346244238,7.305075336416178,0.0058247241524318535,-0.0042346278532585085,0.01214000494092092,6.0,0.0,9.3,0.0,1.9999999999999973,1.9999999999999973,0.0,0.0
3.1,6.7580364512549105,0.009075663101469084,7.338690153415083,-0.014148472246858647,-0.006465149520670211,0.013563987943234723,6.2,0.0,9.920000000000002,0.0,2.0000000000000018,2.0000000000000018,0.0,0.0
3.2,6.719164869188409,-0.1668608168067982,7.491686350003021,0.004853173797288368,-0.01083857436201133,0.006537251059455279,6.4,0.0,10.560000000000002,0.0,2.0000000000000018,2.0000000000000018,0.0,0.0
3.3000000000000003,6.695782115335779,-0.15144554467459348,7.519377315177586,0.006607845263682344,0.008830512431752771,0.01553802052034903,6.6000000000000005,0.0,11.220000000000002,0.0,2.0000000000000018,2.0000000000000018,0.0,0.0
3.4000000000000004,6.480400402375311,-0.12067375598726841,7.542964501206644,0.006137859509122088,0.003150476863060479,0.04352731490654721,6.800000000000001,0.0,11.900000000000002,0.0,1.9999999999999973,1.9999999999999973,0.0,0.0
3.5,6.77268438417285,0.19033484602708983,7.608809475649325,0.00751391251305798,-0.005152692446403456,0.012589692204932675,7.0,0.0,12.600000000000001,0.0,1.9999999999999973,1.9999999999999973,0.0,0.0
3.6,6.571127025388243,-0.01552279101100133,7.392904678950978,0.0018187413938632255,0.021146585666735086,-0.013672651925917479,7.2,0.0,13.320000000000002,0.0,2.0000000000000018,2.0000000000000018,0.0,0.0
3.7,6.789989836125056,-0.22190738067844776,7.394919431256929,0.011889505969673662,-0.0013571998090453723,-0.005777447779293061,7.4,0.0,14.060000000000002,0.0,2.0000000000000018,2.0000000000000018,0.0,0.0
3.8000000000000003,6.579755251179884,0.12193966234020137,7.356154216367773,0.003164585895819749,-0.001544281600961862,-0.0015160034760581713,7.6000000000000005,0.0,14.820000000000002,0.0,2.0000000000000018,2.0000000000000018,0.0,0.0
3.9000000000000004,7.008642420967674,0.11508785334770169,7.161937823126704,0.0028645431476942767,-0.00861786464768388,0.013524333347962238,7.800000000000001,0.0,15.600000000000001,0.0,1.9999999999999973,1.9999999999999973,0.0,0.0
4.0,6.568172696803973,0.0027895337799651483,7.541457302972412,0.009657551941701214,-0.014002964070557762,0.001654987641590516,8.0,0.0,16.400000000000002,0.0,2.0000000000000018,2.0000000000000018,0.0,0.0
4.1000000000000005,6.615809010894735,-0.07799938488605677,7.730527347167508,0.005049817109609556,-0.014608839543350452,0.01417861947054776,8.200000000000001,0.0,17.220000000000002,0.0,2.0000000000000018,2.0000000000000018,0.0,0.0
4.2,7.0053742371207655,0.174869789082672,7.2378037162322455,-0.0038423407286625137,0.010669111491866227,-0.0020766946561878077,8.4,0.0,18.060000000000002,0.0,1.999999999999993,1.999999999999993,0.0,0.0
4.3,6.753623721790813,0.13619510801440052,7.326669640388631,0.0004047464393819992,-0.03441267340069073,-0.005243876413342899,8.6,0.0,18.92,0.0,2.0000000000000018,2.0000000000000018,0.0,0.0
4.4,6.6491655848599045,-0.16716747729472742,7.7105709067150885,-0.013301413779606325,-0.006400444866969838,0.006307405772860914,8.8,0.0,19.8,0.0,2.0000000000000018,2.0000000000000018,0.0,0.0
4.5,6.903241800928796,-0.1953793226769159,7.640183773948587,0.0011023306101958705,-0.01181508651047951,0.009621034742632708,9.0,0.0,20.7,0.0,2.0000000000000018,2.0000000000000018,0.0,0.0
4.6000000000000005,6.716909761904899,-0.0700325315738192,7.476179523873846,-0.002853135968617602,-0.0008648265474875197,0.011621306745210468,9.200000000000001,0.0,21.62,0.0,2.0000000000000018,2.0000000000000018,0.0,0.0
4.7,6.924953329990681,-0.16567232482402736,7.7856642173237836,-0.01852087799522502,-0.0035178509503558334,0.010883172064845766,9.4,0.0,22.560000000000002,0.0,2.0000000000000018,2.0000000000000018,0.0,0.0
4.800000000000001,6.729199587729133,-0.07340492797308906,7.434490873571752,-0.003930009346588328,-0.007893647569442115,0.013496020970210246,9.600000000000001,0.0,23.520000000000003,0.0,2.0000000000000018,2.0000000000000018,0.0,0.0
4.9,6.740603130463628,-0.08393643928909812,7.600649192440335,0.004072995208766093,0.0061286211883896016,0.011296288419236123,9.8,0.0,24.500000000000004,0.0,1.999999999999993,1.999999999999993,0.0,0.0
5.0,6.562701555930568,-0.06402715602954542,7.577803251893832,0.007103702654334649,-0.0022090159396414813,0.00617327383308782,10.0,0.0,25.500000000000004,0.0,2.0000000000000018,2.0000000000000018,0.0,0.0
5.1000000000000005,6.8787005419371425,-0.06873570832537448,7.547773818300849,-0.0010219265243389406,-0.0041768120322722025,0.015987768519871902,10.200000000000001,0.0,26.520000000000003,0.0,2.0000000000000018,2.0000000000000018,0.0,0.0
5.2,6.810863259917083,0.14202644540009576,7.661531032198493,0.0012100384163275905,0.004819529712949639,0.0018973324340654397,10.4,0.0,27.560000000000002,0.0,2.0000000000000018,2.0000000000000018,0.0,0.0
5.300000000000001,6.735675760442145,0.00047854184484731263,7.480258605874251,0.006951570254369137,-0.010182206832334725,0.025923872756854604,10.600000000000001,0.0,28.62,0.0,2.0000000000000018,2.0000000000000018,0.0,0.0
5.4,6.5361482003439155,-0.16212829191815983,7.639425842150358,0.008916626939629357,0.004241198170521552,0.0112834550926428,10.8,0.0,29.700000000000003,0.0,1.999999999999993,1.999999999999993,0.0,0.0
5.5,6.685213791641841,-0.11458815572287472,7.477079894854402,-0.005771617115121117,0.007751197334177512,0.0035294261849786136,11.0,0.0,30.800000000000004,0.0,2.0000000000000018,2.0000000000000018,0.0,0.0
5.6000000000000005,6.563226228050002,-0.028207876247949012,7.527648929266687,-0.004637245528039747,-0.010222203955664314,0.0074368721149191234,11.200000000000001,0.0,31.920000000000005,0.0,2.0000000000000018,2.0000000000000018,0.0,0.0
5.7,6.723795793235187,-0.056041476305669455,7.3950534652825946,0.003320499373576363,-0.016480843414973242,-0.009074637743765553,11.4,0.0,33.06,0.0,2.0000000000000018,2.0000000000000018,0.0,0.0
5.800000000000001,6.579284174381013,-0.012017072756777086,7.512345345965044,0.01575356216949552,0.0065765962320201935,0.0034006147003657287,11.600000000000001,0.0,34.22,0.0,2.0000000000000018,2.0000000000000018,0.0,0.0
5.9,6.684198376383467,-0.13037940469567133,7.46293224072649,-0.0018865863892013834,0.0012271856033808947,-0.0032723094355232305,11.8,0.0,35.4,0.0,1.999999999999993,1.999999999999993,0.0,0.0
6.0,6.764952784705055,0.24991083695038663,7.449395188856815,0.005017117220989415,0.004901439917111125,0.0009877952811416374,12.0,0.0,36.6,0.0,2.0000000000000018,2.0000000000000018,0.0,0.0
6.1000000000000005,6.720664679840441,0.02188886011726923,7.480360625907668,-0.006730097838554665,-0.0017548982574105729,0.009979982912454497,12.200000000000001,0.0,37.82,0.0,2.0000000000000018,2.0000000000000018,0.0,0.0
6.2,6.904722348738135,0.163890623912781,7.788686579752077,-0.006673475628880495,0.006723206367206781,0.006833420057383518,12.4,0.0,39.06,0.0,2.0000000000000018,2.0000000000000018,0.0,0.0
6.300000000000001,7.015521247551529,-0.10124474280327271,7.339750934798227,-0.004993926454440222,-0.023238957243098067,-0.00025755021680761055,12.600000000000001,0.0,40.32,0.0,2.0000000000000018,2.0000000000000018,0.0,0.0
6.4,6.573180908335816,0.04255906797143114,7.516972607491922,0.019761708392158864,0.007504238381860503,-0.0007690365566240306,12.8,0.0,41.6,0.0,1.999999999999993,1.999999999999993,0.0,0.0
6.5,6.552288606866625,0.09378787572597586,7.267674230072247,0.01931458765854354,0.00979440120721287,0.00030824347895295166,13.0,0.0,42.9,0.0,2.0000000000000018,2.0000000000000018,0.0,0.0
6.6000000000000005,6.430080628205247,0.2230808561248119,7.44852823433745,0.013378163119734617,-0.017944276587943668,-0.000993750229537729,13.200000000000001,0.0,44.22,0.0,2.0000000000000018,2.0000000000000018,0.0,0.0
6.7,6.687837362526606,0.02704708906471131,7.398199390403457,0.0072284993234749875,-0.012676204293825944,0.0035762051497870654,13.4,0.0,45.56,0.0,2.0000000000000018,2.0000000000000018,0.0,0.0
6.800000000000001,6.705095152325663,0.09716582510881236,7.572451442838677,-0.010246420918378692,-0.017341141707356223,0.017776768218985092,13.600000000000001,0.0,46.92,0.0,2.0000000000000018,2.0000000000000018,0.0,0.0
6.9,6.736897909365809,-0.09227298048348304,7.698382007453726,0.0021567463429285868,0.009792971840638265,0.005675184814101089,13.8,0.0,48.300000000000004,0.0,1.999999999999993,1.999999999999993,0.0,0.0
7.0,6.996162996301177,0.2833011263664807,7.428364588853483,0.010715709509543554,0.004453759495851475,0.01868631557532349,14.0,0.0,49.7,0.0,2.0000000000000018,2.0000000000000018,0.0,0.0
7.1000000000000005,6.542312288481863,0.1229077189997659,7.624472884152781,-0.016587394864231143,-0.013832585126657752,-0.015392321777601005,14.200000000000001,0.0,51.120000000000005,0.0,2.0000000000000018,2.0000000000000018,0.0,0.0
7.2,6.646639782402195,0.12763133836939433,7.691062768939748,0.0017409478041977519,0.014286155455712919,-0.008801014582148915,14.4,0.0,52.56,0.0,2.0000000000000018,2.0000000000000018,0.0,0.0
7.300000000000001,6.431543441665605,0.011667845165507184,7.523319028466239,0.0006730525190590689,-0.022674421000398765,0.004108799604872116,14.600000000000001,0.0,54.02,0.0,2.0000000000000018,2.0000000000000018,0.0,0.0
7.4,6.491380382493142,0.12045088232450576,7.520698948039875,-0.008398797863273553,-0.007138669173366936,-0.005592135218889517,14.8,0.0,55.5,0.0,1.999999999999993,1.999999999999993,0.0,0.0
7.5,6.6776489429779025,0.16327134807518573,7.317850304175012,0.006040465155178444,-0.007302576183724408,-0.0029287283226234412,15.0,0.0,57.0,0.0,2.0000000000000018,2.0000000000000018,0.0,0.0
7.6000000000000005,6.670996253575695,-0.13528634836290612,7.382661815323266,-0.010978778925888485,0.017647251329163893,0.005352635519717286,15.200000000000001,0.0,58.52,0.0,2.0000000000000018,2.0000000000000018,0.0,0.0
7.7,6.582091981369991,0.0520969866101333,7.448860003671719,-0.00120969599533223,0.004141667000434252,0.01257507710047305,15.4,0.0,60.06,0.0,2.0000000000000018,2.0000000000000018,0.0,0.0
7.800000000000001,6.607475635427299,-0.066372736096702,7.424451456552597,-0.022019211647355846,-0.017151910621985525,0.018668742674445248,15.600000000000001,0.0,61.620000000000005,0.0,2.0000000000000018,2.0000000000000018,0.0,0.0
7.9,6.933795964594063,-0.017355405933456743,7.552192755583713,0.004112501545435361,0.028788808084552378,0.016195749114345768,15.8,0.0,63.2,0.0,1.999999999999993,1.999999999999993,0.0,0.0
8.0,6.667863168846756,-0.12333106609006385,7.2247422630867115,0.003034636358672231,-0.009563507452843033,-0.009222537095976743,16.0,0.0,64.8,0.0,1.999999999999993,1.999999999999993,0.0,0.0
8.1,6.590064874932508,-0.14223220054215924,7.718780456386224,0.009816397569494505,-0.0020797264131661736,0.01979944138890026,16.2,0.0,66.42,0.0,2.0000000000000107,2.0000000000000107,0.0,0.0
8.200000000000001,6.69865605371603,-0.10919263019923954,7.694177822715788,0.006389100436846587,-0.012372461543264565,0.003096613219163918,16.400000000000002,0.0,68.06,0.0,2.0000000000000107,2.0000000000000107,0.0,0.0
8.3,6.555708069561157,-0.1874199596446504,7.604635843255094,0.020094166404701307,-0.015985675738191412,0.010629692366905709,16.6,0.0,69.72,0.0,1.999999999999993,1.999999999999993,0.0,0.0
8.4,6.589454422200596,-0.053068807564704404,7.376850122489517,-0.007639907696798161,-0.00151478372055173,-0.0033095011641103783,16.8,0.0,71.4,0.0,1.999999999999993,1.999999999999993,0.0,0.0
8.5,6.727619331435847,0.012464283582629458,7.429867004095386,-0.00807563662041598,-0.0077677133056833275,0.012553912258257562,17.0,0.0,73.10000000000001,0.0,1.999999999999993,1.999999999999993,0.0,0.0
8.6,6.762188385712544,-0.12663328671978266,7.480609056939723,0.008513871233717892,-0.018694052811213717,0.01043360192379935,17.2,0.0,74.82000000000001,0.0,2.0000000000000107,2.0000000000000107,0.0,0.0
8.700000000000001,6.587657243727009,0.1055898002889739,7.351220337643961,-0.01704882100664519,-0.018275424378831624,0.00548084946661382,17.400000000000002,0.0,76.56,0.0,2.0000000000000107,2.0000000000000107,0.0,0.0
8.8,6.7260091828270925,-0.11564749376566129,7.561498079941954,-0.015615200622689597,-0.0026607979864731656,-0.007110161997624567,17.6,0.0,78.32000000000001,0.0,1.999999999999993,1.999999999999993,0.0,0.0
8.9,6.589275391398547,0.027109800697462102,7.336647206332755,-0.0028455554422982536,0.008062928092144405,-0.0007689186952314873,17.8,0.0,80.10000000000001,0.0,1.999999999999993,1.999999999999993,0.0,0.0
9.0,6.812404624378642,-0.14945602819864273,7.54517983781264,0.015415686206579005,-0.026716445001272897,-0.0029689525547047678,18.0,0.0,81.9,0.0,1.999999999999993,1.999999999999993,0.0,0.0
9.1,6.773611626645968,-0.0104568079064489,7.521381092131035,-0.005039851867158206,-0.0011341021252710007,0.003443227646079205,18.2,0.0,83.72,0.0,2.0000000000000107,2.0000000000000107,0.0,0.0
9.200000000000001,6.862218116817858,0.05816312649518196,7.516349610436619,-0.0031187696612246735,-0.006876062240724935,0.0006744181218037906,18.400000000000002,0.0,85.56,0.0,2.0000000000000107,2.0000000000000107,0.0,0.0
9.3,6.746218628925615,-0.04314767212303944,7.50917543965981,0.02175400798645439,0.006711247034316924,0.0017397646783215885,18.6,0.0,87.42,0.0,1.999999999999993,1.999999999999993,0.0,0.0
9.4,6.867232895893462,-0.041211305953232705,7.1599905308486695,-0.00908086310917404,-0.02070791921025856,0.0014848651595869133,18.8,0.0,89.3,0.0,1.999999999999993,1.999999999999993,0.0,0.0
9.5,6.689813564447319,0.2714655968412924,7.514748317189963,-0.0011910052880886425,0.0062940558118348925,-0.01711135309007885,19.0,0.0,91.2,0.0,2.0000000000000107,2.0000000000000107,0.0,0.0
9.600000000000001,6.722392991285171,0.13562977908304502,7.243921274258363,0.01243754043206929,0.0013849640749441414,0.0008471208609919876,19.200000000000003,0.0,93.12,0.0,2.0000000000000107,2.0000000000000107,0.0,0.0
9.700000000000001,6.781968087484813,0.3606039286706594,7.492989149384122,0.003482205863003361,-0.006593608995402441,-0.0034984436946479186,19.400000000000002,0.0,95.06,0.0,1.999999999999993,1.999999999999993,0.0,0.0
9.8,6.811601180050507,-0.10841257388633006,7.476444146708257,-0.0037765744676511665,0.0027897982574639187,0.008336621052869482,19.6,0.0,97.02,0.0,1.999999999999993,1.999999999999993,0.0,0.0
9.9,6.842681799207556,-0.056502459828212045,7.425227970831342,-0.008787637157823075,-0.006442932600761116,0.008773004930448521,19.8,0.0,99.0,0.0,1.999999999999993,1.999999999999993,0.0,0.0
10.0,6.800599100065689,-0.11832479862664382,7.596150099141188,0.01455637858804951,0.002134349032237009,0.02376795812558066,20.0,0.0,101.0,0.0,2.0000000000000107,2.0000000000000107,0.0,0.0
10.100000000000001,6.570982427703351,-0.16669820549671255,7.1989011737896975,0.01596044311489183,0.004543656563540577,0.004444153290895449,20.200000000000003,0.0,103.02,0.0,2.0000000000000107,2.0000000000000107,0.0,0.0
10.200000000000001,6.729046101516843,-0.14882335709475647,7.832572008067872,0.0022922118197522753,-0.0009060520539510711,0.012257666238986921,20.400000000000002,0.0,105.06,0.0,1.999999999999993,1.999999999999993,0.0,0.0
10.3,6.7592021923293775,0.0535826036418697,7.347138042808551,0.0057146835713599575,0.01682024496475034,0.018454200461549778,20.6,0.0,107.12,0.0,1.999999999999993,1.999999999999993,0.0,0.0
10.4,6.92602880156478,-0.05668235146467776,7.317268488086561,-0.0002578692009964814,-0.001442750877113054,0.015941915184709485,20.8,0.0,109.2,0.0,1.999999999999993,1.999999999999993,0.0,0.0
10.5,6.433181113111663,0.24943254791909203,7.442008026338491,-0.0032688106994742004,-0.012121043752601675,-0.011548566718657692,21.0,0.0,111.3,0.0,2.0000000000000107,2.0000000000000107,0.0,0.0
10.600000000000001,6.810526395163174,0.030997695078260584,7.272215076164181,-0.011950787720636163,-0.005357846992901282,0.02169021525289393,21.200000000000003,0.0,113.42,0.0,2.0000000000000107,2.0000000000000107,0.0,0.0
10.700000000000001,6.64811210486433,-0.20547144296771594,7.428847751512456,-0.001727235697476705,-0.028968866429415714,0.004457051334821878,21.400000000000002,0.0,115.56,0.0,1.999999999999993,1.999999999999993,0.0,0.0
10.8,6.652410628037569,0.12443095472201275,7.74305262536715,0.012265650295477572,-0.004688886905548306,-0.006065259087416703,21.6,0.0,117.72,0.0,1.999999999999993,1.999999999999993,0.0,0.0
10.9,7.07305477805635,0.02888276510217324,7.467798604912289,0.0007587491288999673,-1.9152392321450645e-05,0.003556395880760575,21.8,0.0,119.9,0.0,1.999999999999993,1.999999999999993,0.0,0.0
11.0,6.601001506536851,-0.06202884118605881,7.460796220592939,-0.00443424771133765,-0.009128457826771644,0.006064302276918968,22.0,0.0,122.10000000000001,0.0,2.0000000000000107,2.0000000000000107,0.0,0.0
11.100000000000001,6.648804224955758,0.24559894828740328,7.068063739866387,0.011915068519224619,0.01046085192497629,-0.015733902324081495,22.200000000000003,0.0,124.32000000000001,0.0,2.0000000000000107,2.0000000000000107,0.0,0.0
11.200000000000001,6.635647668456818,-0.03571612989936872,7.2545824569176744,-0.006778166875908753,-0.013105758454658289,0.022522704434236228,22.400000000000002,0.0,126.56,0.0,1.999999999999993,1.999999999999993,0.0,0.0
11.3,6.827402566540989,0.2107332642491238,7.573960020731833,-0.010290517712172292,-0.007245202662797737,0.009893745612279181,22.6,0.0,128.82,0.0,1.999999999999993,1.999999999999993,0.0,0.0
11.4,6.503731636235079,0.1269497645258582,7.429660401401628,-0.002748208075495975,0.005109599682034915,0.009442633114860398,22.8,0.0,131.1,0.0,1.999999999999993,1.999999999999993,0.0,0.0
11.5,6.632905882696025,0.19389947050463718,7.3035497119853545,0.007159356069442638,0.003931012579683838,0.001904535606860097,23.0,0.0,133.4,0.0,2.0000000000000107,2.0000000000000107,0.0,0.0
11.600000000000001,6.735970760905205,-0.16766703645779546,7.604313264006374,-0.0008490213644298903,-0.007227230205190395,0.015490092258368893,23.200000000000003,0.0,135.72,0.0,2.0000000000000107,2.0000000000000107,0.0,0.0
11.700000000000001,6.581399253987457,-0.19126919445453394,7.232214835096762,0.0070600995134563966,-0.014804293524962832,0.022547941819843646,23.400000000000002,0.0,138.06,0.0,1.999999999999993,1.999999999999993,0.0,0.0
11.8,6.374761396386313,0.2744684552435057,7.49736183120574,3.286888129607607e-05,-0.0074491908680894975,0.008991361143520709,23.6,0.0,140.42000000000002,0.0,1.999999999999993,1.999999999999993,0.0,0.0
11.9,6.681405602205143,0.1854952823024782,7.482843358424653,0.0025030176146187758,-0.005636122122138558,0.004430543762789325,23.8,0.0,142.8,0.0,1.999999999999993,1.999999999999993,0.0,0.0
12.0,6.733221072902696,-0.23652525889849382,7.263481397809482,0.008432640940227151,-0.0002913456187205814,0.003160166636473209,24.0,0.0,145.20000000000002,0.0,2.0000000000000107,2.0000000000000107,0.0,0.0
12.100000000000001,6.689815897528695,0.07213725580425065,7.384745259078935,-0.006783047254023127,-4.154744902318437e-05,-0.00478372777615032,24.200000000000003,0.0,147.62,0.0,2.0000000000000107,2.0000000000000107,0.0,0.0
12.200000000000001,6.748288720926041,-0.23538754063567605,7.620082556724195,0.0057259748241304306,0.0005602973431387565,0.01482690983945514,24.400000000000002,0.0,150.06,0.0,1.999999999999993,1.999999999999993,0.0,0.0
12.3,6.936871974238257,0.17215550975271954,7.189578076425601,-0.011795769667357014,-0.008248185776956789,0.005260910502108338,24.6,0.0,152.52,0.0,1.999999999999993,1.999999999999993,0.0,0.0
12.4,6.764699660639239,-0.08886157197301983,7.493724225796909,-0.006553829323533226,-0.008115178029919482,-0.009066610968482224,24.8,0.0,155.0,0.0,1.999999999999993,1.999999999999993,0.0,0.0
12.5,6.548565820652251,-0.18275269084245005,7.319328223178739,0.011536417966078395,-0.01149398888831943,0.031323820648373905,25.0,0.0,157.5,0.0,2.0000000000000107,2.0000000000000107,0.0,0.0
12.600000000000001,6.76104849270102,0.04772541855423108,7.336955544098157,0.008003098794089914,-0.00775637826237774,0.006220098146453614,25.200000000000003,0.0,160.02,0.0,2.0000000000000107,2.0000000000000107,0.0,0.0
12.700000000000001,7.07106348830919,0.00559101504130252,7.638100210068199,-0.006031764251258874,-0.002349884904969617,0.0227080063563551,25.400000000000002,0.0,162.56,0.0,1.999999999999993,1.999999999999993,0.0,0.0
12.8,6.593005748900706,0.2918672836995393,7.571872001443669,-0.004624667758942677,0.00432407739055521,0.014725544496267298,25.6,0.0,165.12,0.0,1.999999999999993,1.999999999999993,0.0,0.0
12.9,6.7803223019014505,-0.21553370798356847,7.356638634751618,-0.0014751863555150474,-0.002744334291000463,0.01120672097550678,25.8,0.0,167.70000000000002,0.0,1.999999999999993,1.999999999999993,0.0,0.0
13.0,6.713705957708875,-0.1803016538065152,7.522738888776233,0.0071058574528382315,0.0035979044793103985,0.01580780725554622,26.0,0.0,170.3,0.0,2.0000000000000107,2.0000000000000107,0.0,0.0
13.100000000000001,6.8121391307512225,0.0888770118842655,7.4551843544065415,-0.015609609335159914,0.0022961821913258587,0.007076876871631112,26.200000000000003,0.0,172.92000000000002,0.0,2.0000000000000107,2.0000000000000107,0.0,0.0
13.200000000000001,6.727787633148177,-0.1715122863730464,7.303550730064108,0.011531528533329036,-0.0023955515385665504,0.011815006973726245,26.400000000000002,0.0,175.56,0.0,1.999999999999993,1.999999999999993,0.0,0.0
13.3,6.69129856398844,0.024463420924361778,7.606451782021748,-0.0041604472821737395,-0.0010387922305901665,0.00037724711294957487,26.6,0.0,178.22,0.0,1.999999999999993,1.999999999999993,0.0,0.0
13.4,6.621876373454024,-0.026375818520295902,7.499029276870405,-0.003787486216634773,0.010557561255735207,-0.00394607302219504,26.8,0.0,180.9,0.0,1.999999999999993,1.999999999999993,0.0,0.0
13.5,6.659020060944683,-0.04595965874112623,7.682755893778399,0.002965547765115746,0.008318445394686349,-0.00985560373036972,27.0,0.0,183.6,0.0,2.0000000000000107,2.0000000000000107,0.0,0.0
13.600000000000001,6.727108347449275,0.15344461934351555,7.478051809516653,0.011654803750653513,-0.007172884501003722,0.019093474401855798,27.200000000000003,0.0,186.32,0.0,2.0000000000000107,2.0000000000000107,0.0,0.0
13.700000000000001,7.0318855261117585,-0.03442578406594886,7.398883832915232,0.01553384477117701,0.013795721457307125,-0.0002286002715326833,27.400000000000002,0.0,189.06,0.0,1.999999999999993,1.999999999999993,0.0,0.0
13.8,6.624022785004492,-0.02226769132907608,7.264041634470206,-0.008186519464841984,-0.012041407667520678,-0.0026779756510412842,27.6,0.0,191.82,0.0,1.999999999999993,1.999999999999993,0.0,0.0
13.9,6.681848074460853,0.05513220988047811,7.6982842850474595,-0.00898354040738791,0.007843223984765838,0.0028601115577449104,27.8,0.0,194.6,0.0,1.999999999999993,1.999999999999993,0.0,0.0
14.0,6.679631251121021,0.12122292382499056,7.297300907890994,0.004824097461840506,-0.00033547791786943913,0.009924512640081491,28.0,0.0,197.4,0.0,2.0000000000000107,2.0000000000000107,0.0,0.0
14.100000000000001,6.730426104155059,0.38829502098663415,7.3700482134876415,-0.004309969550018176,-0.008231405264247644,-0.0005547711916025462,28.200000000000003,0.0,200.22,0.0,2.0000000000000107,2.0000000000000107,0.0,0.0
14.200000000000001,6.591442738472893,0.19835247966613276,7.678784848323826,-0.004707462937494763,-0.010323555731042287,0.009714155563864041,28.400000000000002,0.0,203.06,0.0,1.999999999999993,1.999999999999993,0.0,0.0
14.3,6.604217350926725,0.11493977266332661,7.4961476642530425,-0.014157441149972319,0.013475052013300617,0.02295877673095522,28.6,0.0,205.92000000000002,0.0,1.999999999999993,1.999999999999993,0.0,0.0
14.4,6.595132503996212,-0.03815523399039762,7.508589019734083,0.00434456789987025,0.004585442726728305,0.0251020453876635,28.8,0.0,208.8,0.0,1.999999999999993,1.999999999999993,0.0,0.0
14.5,6.660508723444779,-0.09974458668076805,7.25881132692316,-0.006309300399419191,-0.002331269728737971,0.022945578635177877,29.0,0.0,211.70000000000002,0.0,2.0000000000000107,2.0000000000000107,0.0,0.0
14.600000000000001,6.609409112713461,0.05356819274583477,7.463245776714426,0.012883932734480841,0.023269324258736214,-0.0003086877292032067,29.200000000000003,0.0,214.62,0.0,2.0000000000000107,2.0000000000000107,0.0,0.0
14.700000000000001,6.613634891191137,0.17662413156036078,7.567992934569294,0.019467073257360336,0.003839281853259639,0.0014070790921294047,29.400000000000002,0.0,217.56,0.0,1.999999999999993,1.999999999999993,0.0,0.0
14.8,6.775649032172717,0.18630553708743613,7.588781538304953,0.006072740311072977,0.00866674689589154,0.016692955904456727,29.6,0.0,220.52,0.0,1.999999999999993,1.999999999999993,0.0,0.0
14.9,6.8943746562245,0.1173064831384464,7.440641499077819,0.0024671368643332282,0.010065089665083569,-0.0031693567098723613,29.8,0.0,223.5,0.0,1.999999999999993,1.999999999999993,0.0,0.0
15.0,6.742351803899822,-0.0390008218491041,7.470020934565562,0.013784518626072988,-8.900931980096666e-05,0.005464365481561488,30.0,0.0,226.5,0.0,2.0000000000000107,2.0000000000000107,0.0,0.0
15.100000000000001,6.483072386421899,0.1319380349040831,7.5625318382965006,0.022632547233054603,-0.0050777823495300085,0.00719150327663939,30.200000000000003,0.0,229.52,0.0,2.0000000000000107,2.0000000000000107,0.0,0.0
15.200000000000001,6.7244583601254835,0.2566179919645212,7.451414881267305,0.0037902152577033925,0.004078965097165392,0.006866091231563581,30.400000000000002,0.0,232.56,0.0,1.999999999999993,1.999999999999993,0.0,0.0
15.3,6.620085765386292,0.04911349893474613,7.6267539736043135,-0.009265152994110602,-0.0006703032585312402,-0.0020012081493917325,30.6,0.0,235.62,0.0,1.999999999999993,1.999999999999993,0.0,0.0
15.4,6.866307801907597,-0.2084780357175662,7.38187093403461,0.004772118750645209,0.013655240292343404,0.004342497389270122,30.8,0.0,238.70000000000002,0.0,1.999999999999993,1.999999999999993,0.0,0.0
15.5,6.603770878564907,0.3021735604160885,7.248507126062902,-0.02098805956620082,0.002400144500533324,-2.0542243526111732e-05,31.0,0.0,241.8,0.0,2.0000000000000107,2.0000000000000107,0.0,0.0
15.600000000000001,6.53386588499928,0.12625346709490298,7.502279318191019,-0.004640786307367284,-0.014803043986708944,0.013724573282801446,31.200000000000003,0.0,244.92000000000002,0.0,2.0000000000000107,2.0000000000000107,0.0,0.0
15.700000000000001,6.78458098426267,0.005123620433092564,7.742704760532497,-0.009700847663261528,-0.01725525170924739,-0.0019190806988124446,31.400000000000002,0.0,248.06,0.0,1.999999999999993,1.999999999999993,0.0,0.0
15.8,6.680212905115546,0.05650091739840378,7.429523802446898,0.004520553965142968,-0.01451539424190444,0.019437646040732594,31.6,0.0,251.22,0.0,1.999999999999993,1.999999999999993,0.0,0.0
15.9,6.674728130809985,0.18759437473821913,7.517118013082003,0.0055675321915378394,0.0036976728023220395,0.00947708560017315,31.8,0.0,254.4,0.0,1.999999999999993,1.999999999999993,0.0,0.0
16.0,6.783459221549018,0.2193728795198647,7.495187386580559,0.008090037575885122,-0.0028973569428722675,0.019401172154494727,32.0,0.0,257.6,0.0,2.0000000000000107,2.0000000000000107,0.0,0.0
16.1,6.58559196225998,0.29014106493662234,7.459685518528696,-0.01330775102118048,-0.0007189558508921073,-0.0018105165747488083,32.2,0.0,260.82000000000005,0.0,1.999999999999993,1.999999999999993,0.0,0.0
16.2,6.81314733991718,-0.07789359689535863,7.398781696143131,-0.01789540730945531,-0.006523063192490767,-0.019238793266289567,32.4,0.0,264.06000000000006,0.0,1.999999999999993,1.999999999999993,0.0,0.0
16.3,6.449465384046043,0.1340621984216446,7.583579234922955,0.005254575617849647,-0.01166976143129213,0.004522886438580202,32.6,0.0,267.32000000000005,0.0,2.0000000000000284,2.0000000000000284,0.0,0.0
16.400000000000002,6.6865104267052855,-0.15375470337888142,7.69121895639042,0.009773622905756715,-0.004209641738296639,0.005268858389945308,32.800000000000004,0.0,270.6,0.0,1.999999999999993,1.999999999999993,0.0,0.0
16.5,6.718308228761003,-0.28626023026364356,7.428632603747258,-0.005819842479977986,-0.012016200098949156,0.002188997071140451,33.0,0.0,273.90000000000003,0.0,1.999999999999993,1.999999999999993,0.0,0.0
16.6,6.956703786596299,0.11612642919005148,7.3800323626579285,0.006725827813561586,0.011993554365860021,0.014246336829127688,33.2,0.0,277.22,0.0,1.999999999999993,1.999999999999993,0.0,0.0
16.7,6.6959953630568965,-0.07704051665583608,7.570442708167386,0.004934853854217496,0.0069519322002773234,0.011351718016819695,33.4,0.0,280.56,0.0,1.999999999999993,1.999999999999993,0.0,0.0
16.8,6.844483714866802,-0.06028528173408519,7.663318320970479,0.0029759960469239967,0.018752608726252652,-0.0018918781808956783,33.6,0.0,283.92,0.0,2.0000000000000284,2.0000000000000284,0.0,0.0
16.900000000000002,6.947445378043658,0.04968661751939717,7.367996510583181,-0.0038388583405432157,-0.005203473081943202,0.009241659464019164,33.800000000000004,0.0,287.3,0.0,1.999999999999993,1.999999999999993,0.0,0.0
17.0,6.7654761307741955,-0.06605500059078684,7.4620560222862,0.02242270358611864,0.015275431701007114,0.009363236696740322,34.0,0.0,290.7,0.0,1.999999999999993,1.999999999999993,0.0,0.0
17.1,6.692751329294101,0.038004699007739194,7.5577369070349105,-0.009227925651984055,-0.004573765374233451,-0.011685840738775894,34.2,0.0,294.12,0.0,1.999999999999993,1.999999999999993,0.0,0.0
17.2,6.746934275959663,0.11707939095541116,7.393231241780442,0.016739867632900328,-0.014257656630023412,-0.009643748802098201,34.4,0.0,297.56,0.0,1.999999999999993,1.999999999999993,0.0,0.0
17.3,6.720718580352898,0.17706474539182315,7.71829836484401,-0.0035888426286894,0.008786808334312956,0.004614915304992928,34.6,0.0,301.02,0.0,2.0000000000000284,2.0000000000000284,0.0,0.0
17.400000000000002,6.661156712577748,0.15254899062300084,7.5635576428873605,-0.014763921569842492,0.012765403497258958,0.018800913541474517,34.800000000000004,0.0,304.5,0.0,1.999999999999993,1.999999999999993,0.0,0.0
17.5,6.593216402342441,0.07937053001561135,7.539813739067759,0.0036067376582390714,-0.0075030515384542015,-0.0017162336793805156,35.0,0.0,308.0,0.0,1.999999999999993,1.999999999999993,0.0,0.0
17.6,6.6832176969201535,0.19590935288890468,7.547249234314513,-0.0027061433208610593,0.005716987106483448,-0.023485426206300754,35.2,0.0,311.52,0.0,1.999999999999993,1.999999999999993,0.0,0.0
17.7,6.859365662624686,-0.24095706681671494,7.411343069914878,-0.010196698946261438,-0.014946814757209059,0.016608267873785193,35.4,0.0,315.06,0.0,1.999999999999993,1.999999999999993,0.0,0.0
17.8,6.616895627372118,0.07197558225960736,7.458671124293453,0.0057704082722312144,-0.0012317810893974464,-0.007829922241885695,35.6,0.0,318.62,0.0,2.0000000000000284,2.0000000000000284,0.0,0.0
17.900000000000002,6.836490830485942,-0.05406348747419687,7.232221926326385,-0.0032811516096591248,0.01300759790634311,0.01350221742113493,35.800000000000004,0.0,322.2,0.0,1.999999999999993,1.999999999999993,0.0,0.0
18.0,6.634752987407691,-0.03238865564776432,7.4174639534427405,0.02176747983560841,0.0018193545223155333,0.009300416471910697,36.0,0.0,325.8,0.0,1.999999999999993,1.999999999999993,0.0,0.0
18.1,6.841593325673647,0.05581837385397703,7.426852889252243,-0.0009634984908497828,-0.0027160125941406398,0.004627777634901584,36.2,0.0,329.42,0.0,1.999999999999993,1.999999999999993,0.0,0.0
18.2,6.796195239114417,0.027791882871094915,7.575605222707685,0.00019283419891417681,-0.0012136480968390941,-0.014982006845321076,36.4,0.0,333.06,0.0,1.999999999999993,1.999999999999993,0.0,0.0
18.3,6.824499958774274,0.0719732713846989,7.615410727604278,-0.02796255378193689,0.01888374704780728,0.0036041037184482627,36.6,0.0,336.72,0.0,2.0000000000000284,2.0000000000000284,0.0,0.0
18.400000000000002,6.853278230079498,-0.13598588906882964,7.5576252968847335,-0.009534155631736561,-0.008237689606958051,0.024140313538667864,36.800000000000004,0.0,340.40000000000003,0.0,1.999999999999993,1.999999999999993,0.0,0.0
18.5,6.658448447454369,0.052614930976958435,7.596219370728661,0.005956818879726046,-0.0004958109485642358,0.008649610024662253,37.0,0.0,344.1,0.0,1.999999999999993,1.999999999999993,0.0,0.0
18.6,7.047563145354612,0.011357180444962192,7.495874068132593,0.01150654396007612,0.009055259329579839,0.016870303055603803,37.2,0.0,347.82000000000005,0.0,1.999999999999993,1.999999999999993,0.0,0.0
18.7,6.782860340873248,-0.15145073690957253,7.710723940970512,-0.01046345393018688,0.0010263546523903324,-0.0025427585001935793,37.4,0.0,351.56000000000006,0.0,1.999999999999993,1.999999999999993,0.0,0.0
18.8,6.677430055579952,0.06931436154552206,7.513912793442871,0.0052192075423528475,0.014137112690586472,0.009535343015139797,37.6,0.0,355.32000000000005,0.0,2.0000000000000284,2.0000000000000284,0.0,0.0
18.900000000000002,6.650427312275274,0.16461307524325358,7.6441297844640435,-0.011276078151369925,0.00397400069849858,0.012011727423108983,37.800000000000004,0.0,359.1,0.0,1.999999999999993,1.999999999999993,0.0,0.0
19.0,6.642416282064872,0.2263560219967429,7.443200873070468,0.0022557645347154225,-0.0037307182428386963,0.005155790475814675,38.0,0.0,362.90000000000003,0.0,1.999999999999993,1.999999999999993,0.0,0.0
19.1,6.522609544534621,-0.19600763238914415,7.704884970609076,-0.007469613483183279,-0.011913923494563073,-0.016533901136037147,38.2,0.0,366.72,0.0,2.0000000000000284,2.0000000000000284,0.0,0.0
19.200000000000003,6.591206545415445,-0.17846346901112475,7.712011485145803,0.01109817089342634,-0.008881503451777238,0.02752435805344309,38.400000000000006,0.0,370.56,0.0,1.999999999999993,1.999999999999993,0.0,0.0
19.3,6.83431563061761,-0.02872470752629337,7.090798353894312,0.02390942572590742,-0.01589572466763596,-0.011453987469568917,38.6,0.0,374.42,0.0,1.999999999999993,1.999999999999993,0.0,0.0
19.400000000000002,6.840436372370316,0.38596286095089094,7.673350133901925,0.006639091200523596,0.003947543416652859,0.013534155587803076,38.800000000000004,0.0,378.3,0.0,1.999999999999993,1.999999999999993,0.0,0.0
19.5,6.800890096036885,0.062178713595406374,7.481339376718129,0.0003740687210047759,-0.009539645888666763,0.0021932492313322593,39.0,0.0,382.2,0.0,1.999999999999993,1.999999999999993,0.0,0.0
19.6,6.433107285439593,0.005249055980787518,7.317420545052692,-0.010035893172157709,-0.00020105848846521538,0.018920022863445993,39.2,0.0,386.12,0.0,2.0000000000000284,2.0000000000000284,0.0,0.0
19.700000000000003,6.824798298469218,-0.21557509054347654,7.3172649906397975,0.01040771187988216,-0.011824873935383097,0.002753668500029754,39.400000000000006,0.0,390.06,0.0,1.999999999999993,1.999999999999993,0.0,0.0
19.8,6.7695586224225535,-0.1252516682295453,7.481515537047242,-0.012340254949182044,-0.008013676439512136,0.00819781934142537,39.6,0.0,394.02,0.0,1.999999999999993,1.999999999999993,0.0,0.0
19.900000000000002,6.44810174753912,0.08607121069405985,7.462763541286345,0.006524899544171478,0.00023914134064661422,0.018641404299738443,39.800000000000004,0.0,398.0,0.0,1.999999999999993,1.999999999999993,0.0,0.0
20.0,5.839809079181606,-0.04441083116878794,7.984053836580197,0.006432980290363879,-0.0015113992967429567,0.005405916912038824,40.0,0.0,402.0,0.0,0.9999999999999787,0.9999999999999787,0.0,0.0
20.1,4.849701246828986,-0.07943513763264222,8.25531842035539,0.018495767431869394,-0.01443863235391285,-0.0019290519779590733,40.0,0.0,406.0,0.0,0.0,0.0,0.0,0.0
20.200000000000003,4.847238910164619,0.15423865654166619,8.421466759381541,0.013477420726737337,-0.008734906242438684,0.00778994162223802,40.0,0.0,410.0,0.0,0.0,0.0,0.0,0.0
20.3,4.829697942011036,0.3417723691660082,8.287569448270919,0.004098207102270275,0.004337768809320985,0.009137990974514981,40.0,0.0,414.0,0.0,0.0,0.0,0.0,0.0
20.400000000000002,4.927206851168343,0.0005268950399860764,8.472280931922212,-0.00047002001628488623,0.007638791167949096,0.027105230015913515,40.0,0.0,418.0,0.0,0.0,0.0,0.0,0.0
20.5,4.871376232248824,-0.18547044693686168,8.452466903872656,0.026797093376543187,-0.010036745679697309,0.021391168054440676,40.0,0.0,422.0,0.0,0.0,0.0,0.0,0.0
20.6,5.206655122111465,-0.06303823625619918,8.551056673003137,0.01728396623128538,-0.005791277409874871,0.0029641963989763824,40.0,0.0,426.0,0.0,0.0,0.0,0.0,0.0
20.700000000000003,4.867747862907702,-0.13221350960393002,8.368317579365444,-0.011239402667622564,-0.0016591653174077394,-0.0026997323105864184,40.0,0.0,430.0,0.0,0.0,0.0,0.0,0.0
20.8,4.990067886768611,-0.2133843469305441,8.515341245957513,0.009335289616089246,-0.021937356425714552,0.00874056569847572,40.0,0.0,434.0,0.0,0.0,0.0,0.0,0.0
20.900000000000002,5.139150348870993,-0.16144615280368083,8.716595069151001,0.005190190093660452,-0.00905011855758409,0.00444230922342294,40.0,0.0,438.0,0.0,0.0,0.0,0.0,0.0
21.0,5.038749036878258,0.031400808711861725,8.5465226099923,-0.008206735930793664,-0.00030639175963922006,-0.009137144969049802,40.0,0.0,442.0,0.0,0.0,0.0,0.0,0.0
21.1,4.938316090797694,-0.11558614621971845,8.35537971973688,0.013360931752104375,0.00891310120594269,0.011091381209071771,40.0,0.0,446.0,0.0,0.0,0.0,0.0,0.0
21.200000000000003,4.791153085299112,-0.027461267454220287,8.647673866122222,0.0024171691363990477,0.021193295399816944,0.008933178393943718,40.0,0.0,450.0,0.0,0.0,0.0,0.0,0.0
21.3,4.983807367473504,-0.026367469630375204,8.485740346842688,-0.000524698363805439,0.005081086766885905,0.01456702316794584,40.0,0.0,454.0,0.0,0.0,0.0,0.0,0.0
21.400000000000002,4.8371015809238065,-0.17968494303366672,8.19027840515985,0.0060799132691254365,-0.013033666061738737,-0.01652890592952483,40.0,0.0,458.0,0.0,0.0,0.0,0.0,0.0
21.5,5.0132867906796434,0.3939499276149186,8.464798574394361,0.009384907744516419,-0.00118170641452435,0.004011103468088573,40.0,0.0,462.0,0.0,0.0,0.0,0.0,0.0
21.6,5.092861472448164,-0.023541181628297696,8.50581805823613,0.004216978061960136,-0.008680904536430487,0.01492042349536523,40.0,0.0,466.0,0.0,0.0,0.0,0.0,0.0
21.700000000000003,4.928756036495688,-0.0933617739239267,8.546185687660905,-0.007984679817910373,-0.0017181884263087175,0.004908810033557965,40.0,0.0,470.0,0.0,0.0,0.0,0.0,0.0
21.8,5.117884334874736,0.09120473493199292,8.461955167313574,0.009177662992002872,0.011902075490173135,0.010578103063518623,40.0,0.0,474.0,0.0,0.0,0.0,0.0,0.0
21.900000000000002,4.956552892976506,-0.17677543485252395,8.305942161664039,-0.0020522470435466763,-0.008095122021592831,0.0031302869701455398,40.0,0.0,478.0,0.0,0.0,0.0,0.0,0.0
22.0,4.963497488734565,0.09945391315350963,8.455134394416481,0.005865016438262019,-0.0013552558518987977,-0.014754665663538714,40.0,0.0,482.0,0.0,0.0,0.0,0.0,0.0
22.1,4.814099690927186,-0.0016131333582423205,8.28425499969918,0.0069992872999620455,0.013307508323436974,0.017187618516973167,40.0,0.0,486.0,0.0,0.0,0.0,0.0,0.0
22.200000000000003,4.9229835693604675,0.24360892052749278,8.488009329705662,-0.0023708597111803936,-0.008134026635409398,0.001975303135118717,40.0,0.0,490.0,0.0,0.0,0.0,0.0,0.0
22.3,4.896773477218815,0.04556243335632315,8.489795308282824,0.0010304602015341448,0.0023693816974634987,0.016906462747863414,40.0,0.0,494.0,0.0,0.0,0.0,0.0,0.0
22.400000000000002,5.0974331203161976,-0.20273469526748553,8.082621040890052,0.010343199112392738,-0.015668786984154214,0.0027523459810731648,40.0,0.0,498.0,0.0,0.0,0.0,0.0,0.0
22.5,4.779483046091095,-0.25029706563700294,8.546928620356063,0.008591551603026468,-0.007765104007267195,-0.0209104229214491,40.0,0.0,502.0,0.0,0.0,0.0,0.0,0.0
22.6,4.873063332762126,0.07877060081038198,8.243872475809226,0.0028335991977915566,-0.002153098491729956,0.010792914996010884,40.0,0.0,506.0,0.0,0.0,0.0,0.0,0.0
22.700000000000003,4.972937055262122,-0.12596034113223334,8.645194936375018,-0.0005852957302697002,-0.0022730453950993187,-0.00433267959073196,40.0,0.0,510.0,0.0,0.0,0.0,0.0,0.0
22.8,4.888507662321272,-0.11272040710403512,8.439767302136831,0.018117084801423437,-0.015719011429313562,-0.01113561397876741,40.0,0.0,514.0,0.0,0.0,0.0,0.0,0.0
22.900000000000002,5.1756755491240405,-0.011398551572779917,8.365348300326358,0.011399046873960764,-0.00805615539736864,0.023260097135469362,40.0,0.0,518.0,0.0,0.0,0.0,0.0,0.0
23.0,5.056688880700889,-0.05318671122185539,8.78930544311517,-0.005057149230033384,0.005420953720093069,0.00799292580406492,40.0,0.0,522.0,0.0,0.0,0.0,0.0,0.0
23.1,5.150261193409819,0.2542266795090279,8.47050983348521,-0.006534178703461835,0.0025997214293911643,-0.001777153697521061,40.0,0.0,526.0,0.0,0.0,0.0,0.0,0.0
23.200000000000003,5.257008087128993,0.04048029966241062,8.410910978428529,0.002846803058649084,-0.015471262895296965,-0.004716140385106516,40.0,0.0,530.0,0.0,0.0,0.0,0.0,0.0
23.3,5.135062086191663,-0.07853414184570935,8.308672563723054,0.006366527525272862,0.00985704154662997,0.012189533106650666,40.0,0.0,534.0,0.0,0.0,0.0,0.0,0.0
23.400000000000002,5.104407152870872,-0.09351926328541911,8.252437611114068,0.016013336519554867,-0.005226798388421357,0.0024916698354495266,40.0,0.0,538.0,0.0,0.0,0.0,0.0,0.0
23.5,5.154229121277358,0.103434501410099,8.534092376937586,0.02265002344901084,-0.008435182303801431,0.014278401280812373,40.0,0.0,542.0,0.0,0.0,0.0,0.0,0.0
23.6,4.963551968734562,0.06028884182948854,8.694979475087225,0.006078357562896238,0.00338296079049633,0.015725073373098024,40.0,0.0,546.0,0.0,0.0,0.0,0.0,0.0
23.700000000000003,4.900257090568567,-0.10588145010085094,8.30898783202219,-0.018663565893760017,0.018562071299403224,-0.006032083657216831,40.0,0.0,550.0,0.0,0.0,0.0,0.0,0.0
23.8,4.921811956462133,-0.021521994983338098,8.51182021579671,0.009157372125392967,0.006604734883597453,-0.0008307743856893843,40.0,0.0,554.0,0.0,0.0,0.0,0.0,0.0
23.900000000000002,4.9299317429320375,0.06238699257324494,8.428405542197813,0.01707345576019993,0.0029097495163825137,0.012348777860498174,40.0,0.0,558.0,0.0,0.0,0.0,0.0,0.0
24.0,5.054432190300111,0.19602107862279872,8.492862444930902,-0.011968319479558467,0.001996879517526416,-0.0015135689379182906,40.0,0.0,562.0,0.0,0.0,0.0,0.0,0.0
24.1,4.875707497737536,0.107954602813264,8.651451671840391,0.0012127157673606165,0.0010883301259896378,0.02202214944635238,40.0,0.0,566.0,0.0,0.0,0.0,0.0,0.0
24.200000000000003,4.991112976923285,0.41025246712705926,8.550535657970077,-0.016607627591558177,0.0055334162110453255,0.008811583848827777,40.0,0.0,570.0,0.0,0.0,0.0,0.0,0.0
24.3,5.148462913112411,0.12097720269049375,8.44494081352778,-0.011242982362893658,-0.004090232572860253,-0.003505204542093001,40.0,0.0,574.0,0.0,0.0,0.0,0.0,0.0
24.400000000000002,4.867921482529291,0.10828676066309144,8.716194886778055,0.004946715298229811,-0.013958830620351843,0.009446026682201406,40.0,0.0,578.0,0.0,0.0,0.0,0.0,0.0
24.5,5.1344947229968465,-0.07146743564790732,8.445606636124408,0.001146881947291971,-0.0098489831308224,0.01148280433843859,40.0,0.0,582.0,0.0,0.0,0.0,0.0,0.0
24.6,4.936857777708832,0.08292986658605417,8.33258538445503,-0.0033745830032341044,0.005223813578277714,0.0012716684790823303,40.0,0.0,586.0,0.0,0.0,0.0,0.0,0.0
24.700000000000003,5.21404457768501,-0.03994542784219035,8.499411919988129,0.010325908318730898,-0.016183657329330317,-0.012608088119807757,40.0,0.0,590.0,0.0,0.0,0.0,0.0,0.0
24.8,4.726151552814485,0.2093876155140773,8.382930489241478,0.026581992856682526,-0.007642475986573886,0.00684551303197037,40.0,0.0,594.0,0.0,0.0,0.0,0.0,0.0
24.900000000000002,5.18631649288518,0.32091393322386846,8.774934747620804,0.013083662305931425,0.008240625258114625,0.010925269492011832,40.0,0.0,598.0,0.0,0.0,0.0,0.0,0.0
25.0,5.071754161424995,-0.06267785744928,8.342979378611998,0.0009662554258904795,-0.0037018462252492845,0.00046771950672724796,40.0,0.0,602.0,0.0,0.0,0.0,0.0,0.0
25.1,5.059458117118506,0.1632957812855766,8.478970244069123,0.015775300810552617,-0.013416891141335052,0.003063405407202819,40.0,0.0,606.0,0.0,0.0,0.0,0.0,0.0
25.200000000000003,4.847476651909578,-0.25998049256095895,8.453307108248941,-0.00021747508383283538,0.01313449743242131,0.011308116845547776,40.0,0.0,610.0,0.0,0.0,0.0,0.0,0.0
25.3,4.801371976350619,0.29811388495012825,8.648864265454147,0.006820977034686158,-0.0042648409884983194,-0.004594392367234798,40.0,0.0,614.0,0.0,0.0,0.0,0.0,0.0
25.400000000000002,4.899168983589341,0.1833122929556279,8.748397157015537,0.01643243528272189,-0.006888494217862741,-0.006196174332890113,40.0,0.0,618.0,0.0,0.0,0.0,0.0,0.0
25.5,4.97613293703668,-0.24526590483442776,8.514184368253062,-0.0004760258629866868,-0.0066603650186824225,-0.010947030672667953,40.0,0.0,622.0,0.0,0.0,0.0,0.0,0.0
25.6,5.032040015985457,-0.05990512594928671,8.290221685768802,-0.027722622132816493,-0.0022751490505063627,0.022722515966697443,40.0,0.0,626.0,0.0,0.0,0.0,0.0,0.0
25.700000000000003,5.20418888218218,-0.04856443848794077,8.375377402071077,0.005687742560750238,-0.011983854391882915,0.00801791899819466,40.0,0.0,630.0,0.0,0.0,0.0,0.0,0.0
25.8,5.069912041757703,0.20403998358264613,8.450686099653351,-0.0010367375017696586,-0.010779825867565611,-0.0032688035403986007,40.0,0.0,634.0,0.0,0.0,0.0,0.0,0.0
25.900000000000002,4.921028166214771,0.07510482602242671,8.602746905060332,-0.007031789506803449,0.012926885689595217,0.0022887639895743123,40.0,0.0,638.0,0.0,0.0,0.0,0.0,0.0
26.0,4.951794905847734,-0.0920817518721735,8.102073172084404,0.009840453963610496,0.005368438970924334,0.0021867244288178663,40.0,0.0,642.0,0.0,0.0,0.0,0.0,0.0
26.1,4.96504860758373,0.09739088265561492,8.231327332592365,-0.0042905267734629484,0.005942646796218271,-0.007542894231692494,40.0,0.0,646.0,0.0,0.0,0.0,0.0,0.0
26.200000000000003,4.999033689824993,-0.18348727069351076,8.535673708490375,0.0006435851770251644,-0.018151318159055095,0.016647393544571714,40.0,0.0,650.0,0.0,0.0,0.0,0.0,0.0
26.3,4.844811263480292,-0.10153786555215714,8.495794590709986,0.012486373494287151,-0.01215821818978397,0.005616798498479717,40.0,0.0,654.0,0.0,0.0,0.0,0.0,0.0
26.400000000000002,5.019322475049585,0.12396584108947162,8.49217544441693,-0.0026702783908332233,-0.010275902206487197,0.005861438830463747,40.0,0.0,658.0,0.0,0.0,0.0,0.0,0.0
26.5,4.794179148202158,-0.4182025725241911,8.531193181748995,0.010039348410861952,-0.025629324355418384,-0.005097307047099376,40.0,0.0,662.0,0.0,0.0,0.0,0.0,0.0
26.6,5.047873139150779,0.3286243204567548,8.468828267276656,-0.006280029412291345,-0.0038289644110484017,0.01874876419148185,40.0,0.0,666.0,0.0,0.0,0.0,0.0,0.0
26.700000000000003,4.858105373131319,-0.09987880099753803,8.39329768279804,-0.008533286082587122,-0.0007732968400520448,0.021246784584695606,40.0,0.0,670.0,0.0,0.0,0.0,0.0,0.0
26.8,5.003461890967404,-0.01785302531894314,8.421937520788013,-0.014631908086966568,0.006831097771471589,0.00422162802987198,40.0,0.0,674.0,0.0,0.0,0.0,0.0,0.0
26.900000000000002,4.927928012961405,0.4989661351767291,8.510522147380199,-0.006517910500951843,-0.006263575962055433,0.01648445709196755,40.0,0.0,678.0,0.0,0.0,0.0,0.0,0.0
27.0,4.971990561580664,-0.195741696747605,8.603593551311626,-0.00568144085538994,0.016732977762175458,0.015800480657146485,40.0,0.0,682.0,0.0,0.0,0.0,0.0,0.0
27.1,4.887901715651187,0.2121524542602669,8.475887537704455,0.009527736751222194,0.0028473281729447476,-0.0034635665499087353,40.0,0.0,686.0,0.0,0.0,0.0,0.0,0.0
27.200000000000003,4.8584675251523795,0.17449412263717418,8.415492911309364,-0.003036484632419967,-0.01155122579349353,0.009235990655934612,40.0,0.0,690.0,0.0,0.0,0.0,0.0,0.0
27.3,5.264378737886471,-0.14012993713814093,8.46934212962626,0.015122205554154292,-0.0027964139124571517,0.00952371796249734,40.0,0.0,694.0,0.0,0.0,0.0,0.0,0.0
27.400000000000002,4.795640970777967,0.08424606458114729,8.437637571374664,0.01085729995679863,0.009873860515647512,0.03089563642018614,40.0,0.0,698.0,0.0,0.0,0.0,0.0,0.0
27.5,5.041944975982036,0.06886944748732497,8.494866856361945,-0.0025316629281068835,0.0013848384346169113,0.002045985898609706,40.0,0.0,702.0,0.0,0.0,0.0,0.0,0.0
27.6,4.980269146440441,0.21763963034119393,8.3147278263334,0.012398785611290455,0.011171150673398652,0.003819314730089213,40.0,0.0,706.0,0.0,0.0,0.0,0.0,0.0
27.700000000000003,4.63672176514871,-0.07117329806416486,8.660258393109512,0.0007713193770111788,-0.011993022322949107,-4.7749212282174186e-05,40.0,0.0,710.0,0.0,0.0,0.0,0.0,0.0
27.8,5.081093003975682,0.1020100352302069,8.429869396249892,-0.0026682441181468757,-0.005917581490438219,-0.004224101844985025,40.0,0.0,714.0,0.0,0.0,0.0,0.0,0.0
27.900000000000002,5.197306353420416,-0.028348070381700983,8.64828298924917,0.016213160519224515,0.007983108981479603,0.0006837968728195159,40.0,0.0,718.0,0.0,0.0,0.0,0.0,0.0
28.0,5.015559513550491,0.016370659041362576,8.330153932015826,0.00424359281721603,-0.013790397911598026,0.01687679388461564,40.0,0.0,722.0,0.0,0.0,0.0,0.0,0.0
28.1,4.88530740540524,0.0501739483809259,8.508202391857267,-0.0015890497370407734,0.003866938014752747,0.0002509634337747556,40.0,0.0,726.0,0.0,0.0,0.0,0.0,0.0
28.200000000000003,5.085694594618586,-0.18189695203701228,8.484666148057308,0.02038928999058285,-0.012003313246055747,-0.0017774497052485154,40.0,0.0,730.0,0.0,0.0,0.0,0.0,0.0
28.3,5.032086177448837,0.046937267290939694,8.518303726016379,0.005891871301476635,0.004347214685617699,0.016096998419562233,40.0,0.0,734.0,0.0,0.0,0.0,0.0,0.0
28.400000000000002,5.016472798539276,-0.016188648192781364,8.566595266305756,0.019998819348952156,-0.0033263374638257356,-0.004745293046706415,40.0,0.0,738.0,0.0,0.0,0.0,0.0,0.0
28.5,5.121062100393045,0.0019428254069602663,8.13980877922324,0.009474216771504215,-0.007353281859539228,0.004094667176958392,40.0,0.0,742.0,0.0,0.0,0.0,0.0,0.0
28.6,5.004797049585352,0.04857495196685996,8.5721269836962,-0.0033548637056984333,0.0031310579817608267,0.0024045332241608283,40.0,0.0,746.0,0.0,0.0,0.0,0.0,0.0
28.700000000000003,5.065821572133125,0.11230512260195802,8.325393405818655,0.011859821161750324,-0.00735963445114048,0.01308057798281145,40.0,0.0,750.0,0.0,0.0,0.0,0.0,0.0
28.8,5.0100930970102,0.2957275515192684,8.432189313769568,-0.002493167961181975,-0.002194196058877326,0.0019682021716572458,40.0,0.0,754.0,0.0,0.0,0.0,0.0,0.0
28.900000000000002,5.074991285291307,-0.22244659126548819,8.307656848253393,-0.00967802921579193,0.007503075919735758,0.022106133725819255,40.0,0.0,758.0,0.0,0.0,0.0,0.0,0.0
29.0,4.939332617219378,-0.005323258478501593,8.476217035592322,0.012618783026081905,-0.011273531341905741,0.007383689827347851,40.0,0.0,762.0,0.0,0.0,0.0,0.0,0.0
29.1,5.101279644467364,0.09516412549097679,8.494146453615157,0.01101046092567141,-0.029032322929992374,0.011778753195309077,40.0,0.0,766.0,0.0,0.0,0.0,0.0,0.0
29.200000000000003,4.8568886475308855,-0.2545949345284685,8.542389601054092,0.014736585451629577,-0.0033744851462769185,0.01452874547202939,40.0,0.0,770.0,0.0,0.0,0.0,0.0,0.0
29.3,5.196841738698296,0.2172371680376071,8.711703890531053,0.008421274910718923,-0.001245663610984072,-0.011019658118971685,40.0,0.0,774.0,0.0,0.0,0.0,0.0,0.0
29.400000000000002,4.918090626780507,-0.10648698929742874,8.791350618750018,-0.0007588581243233661,-0.0007679519321551432,0.010514853760404676,40.0,0.0,778.0,0.0,0.0,0.0,0.0,0.0
29.5,4.961540366955867,0.27425765606461294,8.372311806865177,0.0029460745523724272,-0.009424705856980482,-0.008200225112207058,40.0,0.0,782.0,0.0,0.0,0.0,0.0,0.0
29.6,4.863234636364206,0.014444480442738198,8.401313877447755,-0.00592420979873856,-0.016063174636718337,0.004168944273713052,40.0,0.0,786.0,0.0,0.0,0.0,0.0,0.0
29.700000000000003,4.7292919438953485,0.13400839455344038,8.47807517406552,-0.013575514994649304,-0.005092090770498634,-0.0025215640559058316,40.0,0.0,790.0,0.0,0.0,0.0,0.0,0.0
29.8,5.002876176562876,0.22106756690347168,8.184433340678483,0.002150260791474172,-0.003601327955666404,0.011713400764504656,40.0,0.0,794.0,0.0,0.0,0.0,0.0,0.0
29.900000000000002,4.986979494235652,-0.09279539976082285,8.417851120775353,-0.006960258568034891,0.008760071385985984,0.005213116486719422,40.0,0.0,798.0,0.0,0.0,0.0,0.0,0.0
30.0,5.24017860286295,0.010900877927806885,8.359448196088776,-0.014137143926128273,-0.020031396762559453,-0.010841359430054896,40.0,0.0,802.0,0.0,0.0,0.0,0.0,0.0
30.1,4.995068997651722,0.09630875348449008,8.228530605820525,0.009950383140761156,-0.006830610516834395,0.006467930119855494,40.0,0.0,806.0,0.0,0.0,0.0,0.0,0.0
30.200000000000003,5.196833094238313,0.15452589737982977,8.425429613939471,-0.007911922254152874,-0.023518154013293047,-0.0021915331924242014,40.0,0.0,810.0,0.0,0.0,0.0,0.0,0.0
30.3,4.923330464175845,-0.1280769290726776,8.4460206660615,0.0017685188295876821,-0.004248559818080786,-0.0015000258082345976,40.0,0.0,814.0,0.0,0.0,0.0,0.0,0.0
30.400000000000002,4.9802982007950085,0.08629109743541136,8.302149349508918,0.015109323797462701,-0.0029858813228426173,0.005188496229448477,40.0,0.0,818.0,0.0,0.0,0.0,0.0,0.0
30.5,5.061232163488483,0.05498241968952525,8.608679706212332,0.003871241652018242,-0.00812437374640438,0.008615035252061016,40.0,0.0,822.0,0.0,0.0,0.0,0.0,0.0
30.6,4.7834410689019,0.03628395586647847,8.460724712528677,-0.001081168572725397,-0.0032853751143893076,-0.01381849045497639,40.0,0.0,826.0,0.0,0.0,0.0,0.0,0.0
30.700000000000003,4.872691263838855,0.033926735171167205,8.489687669924955,-0.00927675140925958,0.010657078408647007,-0.003661748482145008,40.0,0.0,830.0,0.0,0.0,0.0,0.0,0.0
30.8,5.10041858007901,0.08407915428075273,8.368775114648775,0.01875310892609512,-0.0139363683175648,0.014191541736100016,40.0,0.0,834.0,0.0,0.0,0.0,0.0,0.0
30.900000000000002,5.105087347706446,-0.08059303136149673,8.674579006134994,-0.0015004651459895276,0.0008869362927985702,0.007603218387712208,40.0,0.0,838.0,0.0,0.0,0.0,0.0,0.0
31.0,4.934853688779417,0.1416212409739673,8.584732519208178,-0.016485319732381806,0.011043402428781525,-0.011624919880356743,40.0,0.0,842.0,0.0,0.0,0.0,0.0,0.0
31.1,5.109881930651248,0.18900577052413747,8.302064246593066,-0.003108142879545848,-0.013057046684859358,0.002850789697112647,40.0,0.0,846.0,0.0,0.0,0.0,0.0,0.0
31.200000000000003,4.908794857372138,0.13694907984040097,8.662255523043287,0.014956838107899561,-0.007621680265783021,0.0029077812625547222,40.0,0.0,850.0,0.0,0.0,0.0,0.0,0.0
31.3,4.702484271166856,-0.10088050997442831,8.610436956089965,0.01715582823548232,-0.014343488718799221,-0.0009246425915289428,40.0,0.0,854.0,0.0,0.0,0.0,0.0,0.0
31.400000000000002,4.95103913645616,0.06202417382294102,8.344268683137098,0.005240610444640898,-0.006738393470709161,0.004855477291217209,40.0,0.0,858.0,0.0,0.0,0.0,0.0,0.0
31.5,5.036942637200554,0.02096334047164067,8.40025132754636,-9.609803925830838e-05,-0.0028836295920533534,0.001299889701178723,40.0,0.0,862.0,0.0,0.0,0.0,0.0,0.0
31.6,4.916180590599934,0.2597970755757075,8.54984712831653,-0.0019548031802916034,0.0049695440451073564,0.0016618051024399005,40.0,0.0,866.0,0.0,0.0,0.0,0.0,0.0
31.700000000000003,5.130968695637995,0.07544632882971408,8.449613889524711,0.005477169258102777,-0.01770876152068499,-0.006267674689098053,40.0,0.0,870.0,0.0,0.0,0.0,0.0,0.0
31.8,4.775911249040141,0.04144146421455601,8.72558646104811,0.023313001461926323,0.004380511014407572,0.01000844474944457,40.0,0.0,874.0,0.0,0.0,0.0,0.0,0.0
31.900000000000002,4.684841339877089,-0.06140106996010325,8.34754164833911,-0.005208475982511161,-0.003681438185847896,0.00027909422302872626,40.0,0.0,878.0,0.0,0.0,0.0,0.0,0.0
32.0,4.658105028443631,0.13218653841763006,8.304797757264375,0.0033924686411114955,0.018740826697499734,-0.004193845915864234,40.0,0.0,882.0,0.0,0.0,0.0,0.0,0.0
32.1,4.57545687158805,-0.02290063328201662,8.630853156375132,0.02058347454220594,-0.014295495944524169,0.009966992232365218,40.0,0.0,886.0,0.0,0.0,0.0,0.0,0.0
32.2,4.885203431482991,0.004107746854379653,8.8623607131779,-0.014029703283951533,0.0005373966149457344,0.009676931717654332,40.0,0.0,890.0,0.0,0.0,0.0,0.0,0.0
32.300000000000004,5.117867948740901,0.03469747302063431,8.511916792050961,-0.0029164856742179114,0.0006912694124510733,0.0015680772450258952,40.0,0.0,894.0,0.0,0.0,0.0,0.0,0.0
32.4,5.048235783478407,-0.03544155040654509,8.522274270210673,0.0007073718631502165,0.009260502507721681,0.004486062764115137,40.0,0.0,898.0,0.0,0.0,0.0,0.0,0.0
32.5,4.689045129768967,0.20928822510709874,8.329849365995953,-0.005537663386488198,-0.007956612940434921,0.018744380931708174,40.0,0.0,902.0,0.0,0.0,0.0,0.0,0.0
32.6,4.634648867903195,0.49066228004899903,8.624117732485253,0.003232389141291597,-0.002548940006162864,0.00785554074857657,40.0,0.0,906.0,0.0,0.0,0.0,0.0,0.0
32.7,5.0331683642569,0.11678233789250855,8.549049881025862,0.0018958068125524883,-0.003973384203073261,0.003487267163464883,40.0,0.0,910.0,0.0,0.0,0.0,0.0,0.0
32.800000000000004,4.925763757947097,0.19006551453005965,8.554742719467475,-0.0284038863466428,0.0045590077652976095,0.006947361947187748,40.0,0.0,914.0,0.0,0.0,0.0,0.0,0.0
32.9,4.952193686533114,-0.038277767963332876,8.634326119123248,0.010475264621228577,-0.00972877667823609,0.009070522871245351,40.0,0.0,918.0,0.0,0.0,0.0,0.0,0.0
33.0,4.809251489818807,-0.1869427247183396,8.37170162743685,0.009623934723827589,0.007531250453760867,0.010130854200972931,40.0,0.0,922.0,0.0,0.0,0.0,0.0,0.0
33.1,5.063764368027199,0.09742674306724376,8.369486971841903,0.005319225446739406,0.006004095252276824,0.012542913298135743,40.0,0.0,926.0,0.0,0.0,0.0,0.0,0.0
33.2,5.133337005721196,0.12624557708015957,8.518426442256583,0.011701502383164274,-0.002265212592490601,-0.0038187465122771777,40.0,0.0,930.0,0.0,0.0,0.0,0.0,0.0
33.300000000000004,4.930539955408435,-0.09173539672096735,8.364432469879189,-0.00044518670715517836,-0.009924199209999613,0.0019203847036095975,40.0,0.0,934.0,0.0,0.0,0.0,0.0,0.0
33.4,4.670957799956931,0.05199405610594078,8.465890032429678,-0.007170886310681906,0.0045924566843240505,0.014375701376265586,40.0,0.0,938.0,0.0,0.0,0.0,0.0,0.0
33.5,4.713866020344653,-0.09440871678493212,8.35033785865725,-0.008399031011088645,0.0062947484193174846,0.0030617386122719645,40.0,0.0,942.0,0.0,0.0,0.0,0.0,0.0
33.6,4.915322773803408,-0.28057935466101297,8.56102191565673,-0.011392583948534724,-0.0014006736973367175,0.007773769379581917,40.0,0.0,946.0,0.0,0.0,0.0,0.0,0.0
33.7,5.159098789375797,-0.1763230598678668,8.012782387752221,0.0028384954475369484,0.01600511181510854,0.017389463529394373,40.0,0.0,950.0,0.0,0.0,0.0,0.0,0.0
33.800000000000004,4.986448912291193,-0.0537454278448071,8.586777600620941,-0.008735461997044686,0.0027635776935621926,0.010054701591666269,40.0,0.0,954.0,0.0,0.0,0.0,0.0,0.0
33.9,5.114031486124831,0.4339490058366617,8.52457160620216,-0.004089636257074988,-0.0022557431219199444,-0.012690759048891182,40.0,0.0,958.0,0.0,0.0,0.0,0.0,0.0
34.0,4.85079303033664,-0.0413923657169656,8.387095951435157,0.00252354872033722,-0.010224199323822005,0.016210306673244714,40.0,0.0,962.0,0.0,0.0,0.0,0.0,0.0
34.1,4.9550310597377285,0.01860495182920784,8.416525003648408,0.0025519068385897914,0.0062509826466763466,-0.0036713021571090033,40.0,0.0,966.0,0.0,0.0,0.0,0.0,0.0
34.2,4.856282526638711,-0.0255589043164997,8.263828572604362,-0.007192578597214978,-0.00676220873544659,0.013743891807127276,40.0,0.0,970.0,0.0,0.0,0.0,0.0,0.0
34.300000000000004,4.9943841993502875,0.049038486705131654,8.59334390545054,-0.00037371788399396654,0.001904648499288896,0.003967782470675038,40.0,0.0,974.0,0.0,0.0,0.0,0.0,0.0
34.4,4.994804352409943,-0.0674137986417373,8.09988663738388,-0.00034279162186304137,0.0122274813609994,0.014262154022415922,40.0,0.0,978.0,0.0,0.0,0.0,0.0,0.0
34.5,5.099809622688674,0.20541960827093267,8.47900784976956,0.002973157074055956,-0.0081765189543435,0.0018392714397295023,40.0,0.0,982.0,0.0,0.0,0.0,0.0,0.0
34.6,5.047365672465671,0.20058266557532242,8.444792269773195,-0.003501892648514116,-0.001994720411434027,0.01101206748929115,40.0,0.0,986.0,0.0,0.0,0.0,0.0,0.0
34.7,4.738421777579968,-0.32442714297058567,8.383128683701608,-0.011207124259141586,-0.007081401976473109,0.003522196811825285,40.0,0.0,990.0,0.0,0.0,0.0,0.0,0.0
34.800000000000004,4.887012738646547,0.2378701301706118,8.514720925815693,0.004004743596108284,0.004222071440434019,-0.006388331177807692,40.0,0.0,994.0,0.0,0.0,0.0,0.0,0.0
34.9,5.1108667681130395,0.008635357019681019,8.566281303711527,-0.009718572330401555,-0.017537587660160642,0.013178896580250288,40.0,0.0,998.0,0.0,0.0,0.0,0.0,0.0
35.0,5.011461428914627,-0.11530773315362654,8.33525974893414,0.012254347844147695,-0.01389411892867328,0.021426729532559634,40.0,0.0,1002.0,0.0,0.0,0.0,0.0,0.0
35.1,4.819906889802819,0.11575878884125745,8.416416439762997,0.007031874310823431,-0.007441140021141926,0.0033720709392770576,40.0,0.0,1006.0,0.0,0.0,0.0,0.0,0.0
35.2,4.961137876309357,-0.1303281183672209,8.576832862938364,-0.004132135664715852,-0.004285999153400185,-0.004943493746085122,40.0,0.0,1010.0,0.0,0.0,0.0,0.0,0.0
35.300000000000004,4.570649951180703,-0.008654164390025351,8.827601524367282,0.008846042878980238,-0.0021926037973439465,0.0023710917079173234,40.0,0.0,1014.0,0.0,0.0,0.0,0.0,0.0
35.4,4.958369883921806,0.10206786727628149,8.288587288829019,0.012143216946688722,0.0051538131544124404,0.012181857257079345,40.0,0.0,1018.0,0.0,0.0,0.0,0.0,0.0
35.5,5.020771360821458,0.022942498654098486,8.566638396520368,0.00691814133741378,-0.0055404071094102385,-0.0007360177289690096,40.0,0.0,1022.0,0.0,0.0,0.0,0.0,0.0
35.6,4.970278444289297,0.2523530227242781,8.27984314977726,-0.013675252657524402,-0.0003523915876348326,0.005508877018560181,40.0,0.0,1026.0,0.0,0.0,0.0,0.0,0.0
35.7,4.98100124965556,0.05659297968627504,8.432228872930125,0.01589863438602082,-0.018009039784765153,-0.00328497024780246,40.0,0.0,1030.0,0.0,0.0,0.0,0.0,0.0
35.800000000000004,4.9395117859776425,-0.2264783216731251,8.439331050460535,0.01761470165728018,-0.001791135117040382,0.007307009057186835,40.0,0.0,1034.0,0.0,0.0,0.0,0.0,0.0
35.9,4.765975285224112,-0.07245421120592162,8.409429754076754,-0.0021771509675623407,0.010816437950037687,0.010576910607251246,40.0,0.0,1038.0,0.0,0.0,0.0,0.0,0.0
36.0,4.788281306459444,0.05697571676480073,8.540442473399862,0.012401490385212665,0.013805406865683734,-0.005150941918278686,40.0,0.0,1042.0,0.0,0.0,0.0,0.0,0.0
36.1,4.833371373318449,-0.16863667883719244,8.430606232259297,0.005663583744463345,0.007873345165891018,0.004240489763574773,40.0,0.0,1046.0,0.0,0.0,0.0,0.0,0.0
36.2,4.9070228715117725,0.04276369883731106,8.340437775880842,0.021895387216947736,-0.018076610271180585,0.006847405788957245,40.0,0.0,1050.0,0.0,0.0,0.0,0.0,0.0
36.300000000000004,5.258540932884445,0.021019976683999665,8.437203355875122,-0.002574454228104272,-0.0038039168176240783,0.018728484746765302,40.0,0.0,1054.0,0.0,0.0,0.0,0.0,0.0
36.4,4.623220713300573,0.25001505519444883,8.252115638257823,-0.001666523292344148,-0.006292444202986618,0.010885532697707197,40.0,0.0,1058.0,0.0,0.0,0.0,0.0,0.0
36.5,4.715281347217437,0.08932589991229142,8.769355654618373,-0.012631740045928104,-0.00010293832389604335,-0.0016198217779660904,40.0,0.0,1062.0,0.0,0.0,0.0,0.0,0.0
36.6,5.018883080928955,0.02287216661236281,8.3694861747687,0.00587872284871074,0.016043481097867435,0.0030909620827270132,40.0,0.0,1066.0,0.0,0.0,0.0,0.0,0.0
36.7,5.062963691322227,-0.17399094368067455,8.322243754602644,0.0057240627788037735,0.01284116028535965,0.0085561334878566,40.0,0.0,1070.0,0.0,0.0,0.0,0.0,0.0
36.800000000000004,4.908041295421526,0.019893710813503114,8.278148051029888,0.007045153263553668,0.006823330623234092,0.000479096671669196,40.0,0.0,1074.0,0.0,0.0,0.0,0.0,0.0
36.9,4.884493677836074,0.05988173444780727,8.400201250719256,0.00033867385374177546,0.018997217891665155,0.0025297429925400334,40.0,0.0,1078.0,0.0,0.0,0.0,0.0,0.0
37.0,4.901248977196816,-0.07713127084527387,8.577338006850336,-0.00081224173218103,-0.00849373038321426,0.01821304032273012,40.0,0.0,1082.0,0.0,0.0,0.0,0.0,0.0
37.1,5.167940450677045,-0.07006353486080577,8.185728218421252,0.011075136898369222,-0.008846298257600041,0.012906255991627688,40.0,0.0,1086.0,0.0,0.0,0.0,0.0,0.0
37.2,4.659484427343224,0.15388960074489635,8.284033421733229,0.008307641190665245,-0.001857269321635659,-0.004539394193966448,40.0,0.0,1090.0,0.0,0.0,0.0,0.0,0.0
37.300000000000004,4.893944553060982,0.12294776854350511,8.48159337909263,0.006844129804724842,0.017764405845154853,-0.010642416117110514,40.0,0.0,1094.0,0.0,0.0,0.0,0.0,0.0
37.4,5.197581886245293,0.03565339062848194,8.330891603876877,-0.012303136257389897,-0.003891203907770335,0.014216501119244593,40.0,0.0,1098.0,0.0,0.0,0.0,0.0,0.0
37.5,4.935867631943369,0.2466732395371021,8.248032857617611,0.0008791105215394544,-0.01452393444413119,0.008636318826249679,40.0,0.0,1102.0,0.0,0.0,0.0,0.0,0.0
37.6,5.088033108514594,-0.04311426905215798,8.075077132631275,0.0029894814679649454,0.0023673855173350954,0.009042947549616976,40.0,0.0,1106.0,0.0,0.0,0.0,0.0,0.0
37.7,5.140367328773323,-0.14065805194735734,8.567741626942913,0.01292507512477975,-0.01978587584006517,0.008196518259189772,40.0,0.0,1110.0,0.0,0.0,0.0,0.0,0.0
37.800000000000004,4.8793730253488485,0.007771599034753118,8.517860683656096,-0.0038722856411355228,-0.008757080791616119,0.005341524174880246,40.0,0.0,1114.0,0.0,0.0,0.0,0.0,0.0
37.9,4.7919131091705784,-0.14287376933277782,8.56761520356882,-0.01048794035158656,0.004663125009092119,0.009625912928539513,40.0,0.0,1118.0,0.0,0.0,0.0,0.0,0.0
38.0,4.69612899068141,-0.08163469785034826,8.64482562158245,-0.008811655311396816,-0.006644042623093876,0.009620608932518964,40.0,0.0,1122.0,0.0,0.0,0.0,0.0,0.0
38.1,5.072508576392389,-0.017730832906674352,8.376082681921599,0.015223698616985078,0.01538899663797579,0.014788580507817953,40.0,0.0,1126.0,0.0,0.0,0.0,0.0,0.0
38.2,4.967797721384753,-0.10123985824613894,8.34114255014186,0.0062251410526575745,0.0021839822088868376,0.019015985929464293,40.0,0.0,1130.0,0.0,0.0,0.0,0.0,0.0
38.300000000000004,5.05256751388042,-0.2054620452639727,8.623501353783784,-0.008980606273144131,-0.005839712719523516,0.007502002062516945,40.0,0.0,1134.0,0.0,0.0,0.0,0.0,0.0
38.400000000000006,5.254350123467594,0.4864877834008041,8.556717669995773,-0.0008319661872038787,0.003345056484805503,0.01387655425873836,40.0,0.0,1138.0,0.0,0.0,0.0,0.0,0.0
38.5,4.9068998561664205,0.28928170338684833,8.500219825004056,0.005977430890913943,0.0046592425205446136,0.009215866106144558,40.0,0.0,1142.0,0.0,0.0,0.0,0.0,0.0
38.6,5.080841075070441,-0.07258797798203848,8.381963948033441,-0.01000154232971695,0.0023950123062022642,0.01278936503512114,40.0,0.0,1146.0,0.0,0.0,0.0,0.0,0.0
38.7,5.023665929922782,0.2711738650021306,8.464869808300989,0.007687416555925127,-0.012917008761393144,0.0011290029752559897,40.0,0.0,1150.0,0.0,0.0,0.0,0.0,0.0
38.800000000000004,5.059330663634865,0.1473653166114716,8.421614168975719,0.0002840074814193318,-0.017178737466808095,0.0014297079919339062,40.0,0.0,1154.0,0.0,0.0,0.0,0.0,0.0
38.900000000000006,5.088557474527967,0.10628075241598495,8.540809069332527,0.0014977368718096008,-0.0019293684137182356,-0.001603211394734471,40.0,0.0,1158.0,0.0,0.0,0.0,0.0,0.0
39.0,5.05982426303038,0.08314594165840847,8.539512038324265,-0.004260348426675804,-0.023533429198712444,0.01597152711753696,40.0,0.0,1162.0,0.0,0.0,0.0,0.0,0.0
39.1,4.883174381598739,-0.10941636460646807,8.569731047912445,-0.002920126399191296,0.008599363840466218,0.011170059495766976,40.0,0.0,1166.0,0.0,0.0,0.0,0.0,0.0
39.2,5.057535398480071,-0.18489335668008014,8.647500808933305,0.0036125053123385606,-0.005692771392462032,0.006433884673422511,40.0,0.0,1170.0,0.0,0.0,0.0,0.0,0.0
39.300000000000004,4.688564715065251,0.08129792172210062,8.311303484898035,-0.012526702858435344,-0.01722359186217891,0.016126883749899252,40.0,0.0,1174.0,0.0,0.0,0.0,0.0,0.0
39.400000000000006,4.8606104909460806,0.2500591564874749,8.385338991667501,-0.01607357957592947,-0.013165244399486591,0.017358116200069388,40.0,0.0,1178.0,0.0,0.0,0.0,0.0,0.0
39.5,4.931615273309499,-0.06224309447359014,8.489711945003263,0.00601782736167545,0.009173988159024609,0.019484992298929263,40.0,0.0,1182.0,0.0,0.0,0.0,0.0,0.0
39.6,4.901034703131637,-0.17890715291230574,8.403689436956853,0.0036028050658288616,-0.01163758926210611,-0.004571509148950429,40.0,0.0,1186.0,0.0,0.0,0.0,0.0,0.0
39.7,5.006568182232482,0.012702147264432329,8.470628760437084,-0.006584953347000695,-0.004304007142057673,-0.004242331442683044,40.0,0.0,1190.0,0.0,0.0,0.0,0.0,0.0
39.800000000000004,5.088529761668717,0.17528740020856287,8.188781031789631,-0.0082951086019241,-0.01696529255090079,-0.001500239344068982,40.0,0.0,1194.0,0.0,0.0,0.0,0.0,0.0
39.900000000000006,4.942484304531445,-0.19744678295477952,8.327430239156548,-0.009039573720814986,7.267329398943966e-05,0.005693443370362504,40.0,0.0,1198.0,0.0,0.0,0.0,0.0,0.0
40.0,4.846739366999411,0.0465231308209097,8.383707198437255,-0.0017165511032605327,0.01473452090298537,0.01840461051790348,40.0,0.0,1202.0,0.0,0.0,0.0,0.0,0.0
40.1,4.760062814460859,0.14445986268187616,8.587418694299084,-0.010482632887526183,0.006187776437548606,0.020379319184125527,40.0,0.0,1206.0,0.0,0.0,0.0,0.0,0.0
40.2,4.786618279063337,-0.11762542315213954,8.61835843115187,0.0037149531082564797,0.0035147627523952323,0.008405892164004967,40.0,0.0,1210.0,0.0,0.0,0.0,0.0,0.0
40.300000000000004,5.013604388139221,-0.17897081924666244,8.622806867118562,0.012695899924277734,-0.004293907440680278,0.004565230501861375,40.0,0.0,1214.0,0.0,0.0,0.0,0.0,0.0
40.400000000000006,4.7253338746166405,0.09713821340267523,8.551517827382467,0.00037808983000689,0.009243533598705026,0.0016592276902005947,40.0,0.0,1218.0,0.0,0.0,0.0,0.0,0.0
40.5,5.0396908888840395,-0.13294965080381735,8.462176388494209,-0.0007435425790283585,0.0002530792204094158,0.0013047307116664142,40.0,0.0,1222.0,0.0,0.0,0.0,0.0,0.0
40.6,4.935279110649249,0.14390707571622594,8.400194575539613,-0.015065771007386791,0.015495839042054206,0.018814540786904865,40.0,0.0,1226.0,0.0,0.0,0.0,0.0,0.0
40.7,4.7611605957341565,0.12345617078677916,8.390262995542644,0.003634872153310596,0.0009422412901349373,0.00265592199683678,40.0,0.0,1230.0,0.0,0.0,0.0,0.0,0.0
40.800000000000004,4.837435150162039,-0.0835811578474389,8.32828042380316,-0.007318222082304448,-0.0026717829004935527,-0.002157599891107518,40.0,0.0,1234.0,0.0,0.0,0.0,0.0,0.0
40.900000000000006,5.057307809856892,0.24308692330038909,8.378701224919839,0.003394045005353771,0.0029968511030293386,0.009720022709192744,40.0,0.0,1238.0,0.0,0.0,0.0,0.0,0.0
41.0,4.966393290187412,0.13140236275395836,8.538046554027444,-0.011376624223272978,0.006691560643892732,0.013872908372667421,40.0,0.0,1242.0,0.0,0.0,0.0,0.0,0.0
41.1,4.840507084373212,0.025690675317140303,8.568208560047006,-0.0010931381957936157,0.008729780477660118,0.02863872494619361,40.0,0.0,1246.0,0.0,0.0,0.0,0.0,0.0
41.2,4.837102095104751,-0.18715669047306624,8.511282000466077,0.008215625051261435,-0.004308663738447689,0.019532606633210343,40.0,0.0,1250.0,0.0,0.0,0.0,0.0,0.0
41.300000000000004,4.754209130041512,0.12393779345474167,8.37483008801151,0.01819377906207297,0.017925153531681184,-0.0026665658778334787,40.0,0.0,1254.0,0.0,0.0,0.0,0.0,0.0
41.400000000000006,4.872566429613713,0.14893818304697026,8.407639613656919,0.0005458878206776178,-0.0017461157945758983,-0.014196731561976563,40.0,0.0,1258.0,0.0,0.0,0.0,0.0,0.0
41.5,4.952924338085864,-0.08345916610962607,8.391740787765379,0.015436320034688141,-0.014565068942792563,0.013132051867479774,40.0,0.0,1262.0,0.0,0.0,0.0,0.0,0.0
41.6,4.913155560450228,-0.021964025274375156,8.584264995533102,0.0044005129456889044,0.0037061299721953093,0.014681846605328612,40.0,0.0,1266.0,0.0,0.0,0.0,0.0,0.0
41.7,4.9053037425225,-0.07183551017616253,8.302936632141675,-0.007254105299789552,0.027490944253087256,0.017446795807367868,40.0,0.0,1270.0,0.0,0.0,0.0,0.0,0.0
41.800000000000004,4.752338845068796,-0.17836869351153553,8.537989120383118,0.0064726479737796695,0.003488838353173644,0.0024504420644630215,40.0,0.0,1274.0,0.0,0.0,0.0,0.0,0.0
41.900000000000006,4.9361818609995645,0.06918192862390361,8.478593162069345,-0.02119300372747535,-0.004297996305751938,-0.0035140643426031367,40.0,0.0,1278.0,0.0,0.0,0.0,0.0,0.0
42.0,4.981281712836276,0.4677888503905115,8.520831460946491,-0.002135296861723979,0.007218015019772522,0.009826878872092127,40.0,0.0,1282.0,0.0,0.0,0.0,0.0,0.0
42.1,5.018014173567775,0.11102758898235066,8.774190745849776,-0.010308884353259155,0.0027363207681145446,-0.0042638112998153845,40.0,0.0,1286.0,0.0,0.0,0.0,0.0,0.0
42.2,5.038326896951337,-0.11780297672291414,8.403104189084582,-0.0019508991423790633,0.00775816719344709,0.01418454443942414,40.0,0.0,1290.0,0.0,0.0,0.0,0.0,0.0
42.300000000000004,4.768142393533042,0.02824011664997731,8.35927223291297,-0.011585049106753346,-0.004170170504243705,0.001915172115441803,40.0,0.0,1294.0,0.0,0.0,0.0,0.0,0.0
42.400000000000006,5.319007472951828,0.08494397380410443,8.25906658601221,-0.004647740041709422,0.008213832954293985,0.025884427728699252,40.0,0.0,1298.0,0.0,0.0,0.0,0.0,0.0
42.5,4.7171025031643055,-0.2619886577708567,8.746353987431112,0.004896141773709039,-0.010682927318763665,0.010346290861224353,40.0,0.0,1302.0,0.0,0.0,0.0,0.0,0.0
42.6,4.5596378391474675,0.02050632598957415,8.514882387051808,0.0102427013953783,-0.012138959522925378,0.005856871614033591,40.0,0.0,1306.0,0.0,0.0,0.0,0.0,0.0
42.7,4.816186306091061,0.05830756335114756,8.331407262770892,-0.003081008391602206,-0.01195815394790229,0.011511362418236571,40.0,0.0,1310.0,0.0,0.0,0.0,0.0,0.0
42.800000000000004,5.083767667498499,-0.015193085493612066,8.47144491036935,-0.013485914146335442,-0.004996766480067871,0.004497953829582553,40.0,0.0,1314.0,0.0,0.0,0.0,0.0,0.0
42.900000000000006,5.348118963654495,-0.14679505386612454,8.68533579693821,0.01096858773465808,0.0008063640449013638,0.022586204841951334,40.0,0.0,1318.0,0.0,0.0,0.0,0.0,0.0
43.0,5.010815820891029,0.0783738793501893,8.457741113172712,0.013235688824186274,0.008964692338108838,-0.0012567728749621242,40.0,0.0,1322.0,0.0,0.0,0.0,0.0,0.0
43.1,4.757112920810184,-0.010447095609348561,8.345703426465699,0.00036475425384644897,0.010374381346841393,0.00042698344913210014,40.0,0.0,1326.0,0.0,0.0,0.0,0.0,0.0
43.2,4.948576492803263,0.028703410221259284,8.592973843456138,-0.021468893339846053,-0.008067002947652967,0.007112836922794727,40.0,0.0,1330.0,0.0,0.0,0.0,0.0,0.0
43.300000000000004,5.135011843464028,-0.053785367125930766,8.184226305219063,0.007197114459661363,-0.008353623888256292,-0.006896666590903613,40.0,0.0,1334.0,0.0,0.0,0.0,0.0,0.0
43.400000000000006,4.861348191543016,-0.0076788036483774295,8.374997511444613,-0.021055660570990693,0.006970661968871321,0.01774875041278722,40.0,0.0,1338.0,0.0,0.0,0.0,0.0,0.0
43.5,5.052728298700925,-0.1506528505637225,8.435485481033217,0.0009347868477054194,0.003987943895619102,0.01168340488718081,40.0,0.0,1342.0,0.0,0.0,0.0,0.0,0.0
43.6,4.844873930183224,0.03229933346203406,8.53430127181763,0.015558223221467667,0.005045065398247231,0.012890566873755189,40.0,0.0,1346.0,0.0,0.0,0.0,0.0,0.0
43.7,4.9675739941894035,0.23156887178052554,8.52717363051927,-0.007610879101735705,0.012033699701251907,0.011979032725390276,40.0,0.0,1350.0,0.0,0.0,0.0,0.0,0.0
43.800000000000004,4.888543396830727,-0.0519239451098865,8.51019554289646,0.005631847952675848,-2.7077343687935667e-05,0.00811308673442885,40.0,0.0,1354.0,0.0,0.0,0.0,0.0,0.0
43.900000000000006,5.2099936061864565,0.18073147283523283,8.494304549815098,0.010413105807674832,-0.012325239035275395,0.00897927049946809,40.0,0.0,1358.0,0.0,0.0,0.0,0.0,0.0
44.0,5.226395952459965,-0.012706884308856078,8.338564121832482,-0.005520888885930607,-0.012896330373423883,-0.0028476190812770337,40.0,0.0,1362.0,0.0,0.0,0.0,0.0,0.0
44.1,4.899423785211495,-0.1908350528767963,8.468051961217785,0.010022771737866473,-0.011077561801469205,0.020192839236417688,40.0,0.0,1366.0,0.0,0.0,0.0,0.0,0.0
44.2,5.031618813279138,0.17458708784360857,8.367034028047524,0.009545252270666157,-0.01291933900395313,0.013902475008365087,40.0,0.0,1370.0,0.0,0.0,0.0,0.0,0.0
44.300000000000004,4.980775900969029,0.10298768299771754,8.289370020281618,-0.007950698422766047,0.003972282182533848,-0.004483480042242007,40.0,0.0,1374.0,0.0,0.0,0.0,0.0,0.0
44.400000000000006,5.024480943814868,-0.18507067096903687,8.592935343025346,-0.01132523314768509,0.003522999376795233,0.011256309336460008,40.0,0.0,1378.0,0.0,0.0,0.0,0.0,0.0
44.5,4.850484227235563,0.10730398506270904,8.504775550625379,-0.004388418561927383,-0.01208554684076208,-0.01462625691672579,40.0,0.0,1382.0,0.0,0.0,0.0,0.0,0.0
44.6,5.007447507094954,-0.21472041570430828,8.480010841041542,-0.0016344821608224912,0.0047914277543819545,0.0019795450051013582,40.0,0.0,1386.0,0.0,0.0,0.0,0.0,0.0
44.7,4.905582832047935,0.12978060564324434,8.515967915487963,0.0041615595718277835,0.0026926758980852627,-0.010355721232071059,40.0,0.0,1390.0,0.0,0.0,0.0,0.0,0.0
44.800000000000004,5.068518301998046,0.11187031910204034,8.31320674183887,-0.0014408047367420128,-0.002393072876276312,0.003655032155982673,40.0,0.0,1394.0,0.0,0.0,0.0,0.0,0.0
44.900000000000006,5.005078994985279,0.23470501727467752,8.62797422027627,-0.012122191934314061,0.004220699903060487,0.018289333195354095,40.0,0.0,1398.0,0.0,0.0,0.0,0.0,0.0
45.0,5.01302127810338,0.18364706377789503,8.76754977798046,0.011237095461069813,0.0004930859564172886,0.015450884740847534,40.0,0.0,1402.0,0.0,0.0,0.0,0.0,0.0
45.1,4.976733174964533,0.02358545649274332,8.412997075768285,0.01663413358832108,-0.010184286659420014,0.02032367724678116,40.0,0.0,1406.0,0.0,0.0,0.0,0.0,0.0
45.2,5.029979618561055,-0.18989592622029122,8.520856605074059,-0.02000026507651624,0.0042550801683103575,0.013852314829889911,40.0,0.0,1410.0,0.0,0.0,0.0,0.0,0.0
45.300000000000004,4.866146606652191,0.03853215439333735,8.758832826187888,-0.004057467042619367,-0.012589075870566005,0.01981663402462599,40.0,0.0,1414.0,0.0,0.0,0.0,0.0,0.0
45.400000000000006,5.249388078579618,0.0205543507771771,8.617428666436599,0.01441475915530881,-0.00942484232538384,0.00014694164632131704,40.0,0.0,1418.0,0.0,0.0,0.0,0.0,0.0
45.5,5.139631176973209,0.27275214180627644,8.550141340151498,-0.007798143535020543,0.017870611116994416,-0.00030970897811964486,40.0,0.0,1422.0,0.0,0.0,0.0,0.0,0.0
45.6,4.904729332824282,0.07135067517344322,8.69883327423256,0.009539759765522238,0.0021486550036191043,0.009632885301181063,40.0,0.0,1426.0,0.0,0.0,0.0,0.0,0.0
45.7,4.961527200296519,0.10372092717777595,8.0862751994712,-0.0019660745906979835,0.00041321934916780994,-0.006510140836195072,40.0,0.0,1430.0,0.0,0.0,0.0,0.0,0.0
45.800000000000004,5.012948497671733,-0.010670683147918227,8.72903056587267,0.016730197252148565,-0.006658055691181629,0.0034916228843330467,40.0,0.0,1434.0,0.0,0.0,0.0,0.0,0.0
45.900000000000006,4.9439078651587405,-0.047748921423943394,8.494962958729564,-0.006582820688875902,-0.013306153349375262,0.011227112239002687,40.0,0.0,1438.0,0.0,0.0,0.0,0.0,0.0
46.0,5.049429437633271,-0.10064736394899884,8.600012525739736,-0.005315777291653314,0.0005316523803798119,0.013203440126124559,40.0,0.0,1442.0,0.0,0.0,0.0,0.0,0.0
46.1,4.949958115294442,0.08821113682117016,8.38824476454221,-0.0009646658342809715,-0.004058594308803403,-0.0024657834654023894,40.0,0.0,1446.0,0.0,0.0,0.0,0.0,0.0
46.2,4.928483875532632,-0.212292744829562,8.392036149054029,-0.0018487549336967083,-0.004561797524953801,0.002585025541292212,40.0,0.0,1450.0,0.0,0.0,0.0,0.0,0.0
46.300000000000004,4.94573537002098,0.09191622771290958,8.596886772245224,-0.005497652268482671,-0.014032008553891445,-0.00542044412243103,40.0,0.0,1454.0,0.0,0.0,0.0,0.0,0.0
46.400000000000006,4.8819195618207605,-0.03278819767247636,8.350209801195726,-0.011961166642498945,-0.006561208274741882,0.006814266201139714,40.0,0.0,1458.0,0.0,0.0,0.0,0.0,0.0
46.5,5.044254419875334,-0.06361345796624818,8.40375953780383,-0.00826698308847311,-0.0023143917037477643,-0.0034842863419081464,40.0,0.0,1462.0,0.0,0.0,0.0,0.0,0.0
46.6,5.0409691719861796,-0.2478799737901167,8.411764760257476,0.004011073391917421,-0.0001616548367749564,0.03193033663980496,40.0,0.0,1466.0,0.0,0.0,0.0,0.0,0.0
46.7,5.007470003685185,-0.13060818952630154,8.451389574061984,-0.016762463334664517,-0.0028059974929676088,-0.003330560570007587,40.0,0.0,1470.0,0.0,0.0,0.0,0.0,0.0
46.800000000000004,5.092308541334024,-0.062431041189330225,8.448194323756057,-0.005355578414044034,0.015388513518533315,0.001787572338820883,40.0,0.0,1474.0,0.0,0.0,0.0,0.0,0.0
46.900000000000006,5.229883556521879,0.14212276431773999,8.538019220225653,0.004687331473175197,0.001937972982162515,-0.0142767257934561,40.0,0.0,1478.0,0.0,0.0,0.0,0.0,0.0
47.0,4.9131674908773855,0.14677369567764822,8.45837463360423,-0.013051898468035752,-0.0025240445057746947,0.022041055162554914,40.0,0.0,1482.0,0.0,0.0,0.0,0.0,0.0
47.1,5.142033757330207,0.01069939859509524,8.608426602684059,-0.0026650702036805185,-0.019038715868267192,-0.004244659881295544,40.0,0.0,1486.0,0.0,0.0,0.0,0.0,0.0
47.2,5.189433315276228,-0.021098962274395627,8.429201614219092,-0.0019983819627488056,0.01704136589573007,0.021259589153620632,40.0,0.0,1490.0,0.0,0.0,0.0,0.0,0.0
47.300000000000004,5.287817035017219,-0.003856781560007693,8.510052884437409,-0.01416642549420791,0.012769344261182744,-0.00667779551267935,40.0,0.0,1494.0,0.0,0.0,0.0,0.0,0.0
47.400000000000006,4.987516334564393,-0.14459537914492662,8.37737918711454,-0.0073726243104970035,-0.00807875260675818,-0.0003912270314897857,40.0,0.0,1498.0,0.0,0.0,0.0,0.0,0.0
47.5,4.872759680761238,0.14500008676704607,8.299979792165967,0.0032054142701386686,0.010179591523055585,-0.00013196364513395984,40.0,0.0,1502.0,0.0,0.0,0.0,0.0,0.0
47.6,4.847312166387859,-0.014578693777037622,8.642667992379451,0.002941076309533577,-0.0073121429460759856,0.009838766511880398,40.0,0.0,1506.0,0.0,0.0,0.0,0.0,0.0
47.7,4.789656177524535,0.12220392656644219,8.52700030728061,-0.002078084711388841,-0.010385857984472311,-0.0038668092228345734,40.0,0.0,1510.0,0.0,0.0,0.0,0.0,0.0
47.800000000000004,5.035222600451886,0.20434707537335928,8.370113049071026,0.005583867035514843,-0.02287027018602069,-0.0008461773065719961,40.0,0.0,1514.0,0.0,0.0,0.0,0.0,0.0
47.900000000000006,4.950341160069364,-0.11645251254727502,8.325233254906905,-0.005677795564688862,0.0009219272832637318,0.003126709815936253,40.0,0.0,1518.0,0.0,0.0,0.0,0.0,0.0
48.0,4.619265315001253,-0.2981050228952599,8.374679434446769,0.005576865860535521,-0.02947504842725235,2.6982384836934936e-06,40.0,0.0,1522.0,0.0,0.0,0.0,0.0,0.0
48.1,4.876062821522386,0.22825066673126715,8.407955939368415,0.004829889847409285,-0.0005874285991253677,-0.016305664798072005,40.0,0.0,1526.0,0.0,0.0,0.0,0.0,0.0
48.2,5.07023108249476,0.052309475818443196,8.541949507076534,0.04026237706436327,-0.022841129394985886,0.022246966497611088,40.0,0.0,1530.0,0.0,0.0,0.0,0.0,0.0
48.300000000000004,4.9118828720899455,0.0630993356604514,8.458882374330159,-0.003242363333980435,-0.0076983292823875876,0.00829508735573009,40.0,0.0,1534.0,0.0,0.0,0.0,0.0,0.0
48.400000000000006,4.727423945499248,0.13258687512826484,8.403280050392556,-0.010300693390403577,-0.006500128579958137,0.01757149216862573,40.0,0.0,1538.0,0.0,0.0,0.0,0.0,0.0
48.5,4.874699736947566,0.07376804273144304,8.356065769768025,0.008579218499236195,0.004855077387902041,0.023486088332964117,40.0,0.0,1542.0,0.0,0.0,0.0,0.0,0.0
48.6,4.9286654081751164,0.120298220713686,8.480419342056187,0.013958717818630145,-0.009188323876087303,0.012450053128772811,40.0,0.0,1546.0,0.0,0.0,0.0,0.0,0.0
48.7,4.925795405582497,0.010371773433725338,8.4794720837926,0.003522403964266774,-0.0031622904312195816,0.007147131831705263,40.0,0.0,1550.0,0.0,0.0,0.0,0.0,0.0
48.800000000000004,5.191717708634327,0.16781745284228275,8.59608239999988,-0.0035553952602387076,-0.010892408282283243,0.014553005582377529,40.0,0.0,1554.0,0.0,0.0,0.0,0.0,0.0
48.900000000000006,5.086407018879468,0.2409006013626473,8.37511211722996,-0.001295486553603471,-0.018394841625254343,0.0010752889393912711,40.0,0.0,1558.0,0.0,0.0,0.0,0.0,0.0
49.0,5.104485576586916,-0.049974306884229686,8.561781180405468,-0.0009050310599781133,0.0012405702822156062,-0.006476913898156674,40.0,0.0,1562.0,0.0,0.0,0.0,0.0,0.0
49.1,4.967781417445084,-0.42867039563510845,8.437674787401047,-0.0153047324371514,0.01005994516546816,0.012774073527645112,40.0,0.0,1566.0,0.0,0.0,0.0,0.0,0.0
49.2,5.025000647294911,0.24815093407390698,8.32337173300162,0.018473631979155584,0.007321915642603847,0.0026344471278105398,40.0,0.0,1570.0,0.0,0.0,0.0,0.0,0.0
49.300000000000004,5.125343022077441,-0.14594402686174512,8.342032086896195,-0.005085897232397004,-0.007289777080640152,-0.005565576427602528,40.0,0.0,1574.0,0.0,0.0,0.0,0.0,0.0
49.400000000000006,5.138462460064298,-0.018828160055474743,8.518584956378877,-0.004703513664136806,-0.020206033005485173,0.007700573583914221,40.0,0.0,1578.0,0.0,0.0,0.0,0.0,0.0
49.5,4.668161753687032,0.009704893087179709,8.260461955300423,0.02087275999230808,0.007113627221747217,0.006057537912714805,40.0,0.0,1582.0,0.0,0.0,0.0,0.0,0.0
49.6,5.1445560016481995,-0.10694739661986037,8.54723111792586,0.002998104337187135,0.0006402008133367001,0.01772353500106768,40.0,0.0,1586.0,0.0,0.0,0.0,0.0,0.0
49.7,5.06487381541697,0.06330854942375348,8.2174760956911,-0.008600462952794638,-0.0032270893359572415,0.0059337237427665125,40.0,0.0,1590.0,0.0,0.0,0.0,0.0,0.0
49.800000000000004,4.78546944129891,0.38175150133676317,8.693168319413381,0.007021183203924835,-0.0012796313871625525,0.0028779103009884833,40.0,0.0,1594.0,0.0,0.0,0.0,0.0,0.0
49.900000000000006,4.812212230996664,0.03162207777782938,8.504372092146758,-0.011417605754816245,0.0013417641724489744,0.0034474095117525126,40.0,0.0,1598.0,0.0,0.0,0.0,0.0,0.0
50.0,3.80280346253394,-0.10905775161692528,8.903668381112105,0.019876876573401904,0.0035655312453375812,-0.008354815690998912,40.0,0.0,1602.0,0.0,-1.0000000000000142,-1.0000000000000142,0.0,0.0
50.1,3.2958546358437433,-0.21209559834075484,9.62811286920842,-0.003711246518178786,-0.0029363618873917085,0.0182579664754219,39.8,0.0,1605.98,0.0,-2.0000000000000284,-2.0000000000000284,0.0,0.0
50.2,3.02987465714346,-0.1895677277669487,9.378169312173458,0.011383788510193168,-0.017193460754768422,-0.023321555981105687,39.599999999999994,0.0,1609.94,0.0,-2.0000000000000284,-2.0000000000000284,0.0,0.0
50.300000000000004,3.1552753636697477,0.10276111998663806,9.645748473586183,-0.0036316136208539903,-0.006114266071160024,0.016539007342557473,39.39999999999999,0.0,1613.88,0.0,-2.0000000000000284,-2.0000000000000284,0.0,0.0
50.400000000000006,2.942487937476846,-0.03827811627745138,9.494272794614082,0.005492187212850342,-0.007098066931908825,0.005344410117058413,39.19999999999999,0.0,1617.8000000000002,0.0,-1.9999999999999574,-1.9999999999999574,0.0,0.0
50.5,2.8497000894192106,-0.07873726185007725,9.533735518008493,-0.008822940342546794,-0.0014101577841040263,0.009468725008026981,39.0,0.0,1621.7000000000003,0.0,-1.9999999999999574,-1.9999999999999574,0.0,0.0
50.6,3.1715668123024328,0.04556956564948564,9.321299326332667,-0.0010661127969604665,0.004102161695892226,0.006569729609684343,38.8,0.0,1625.5800000000004,0.0,-2.0000000000000284,-2.0000000000000284,0.0,0.0
50.7,3.1349695019965074,0.05363246064361896,9.572900679720853,-0.01949941278577478,0.009590740649558976,0.0016374526131892803,38.599999999999994,0.0,1629.4400000000003,0.0,-2.0000000000000284,-2.0000000000000284,0.0,0.0
50.800000000000004,3.286772682417132,0.19958703854678417,9.25995815654079,-0.006094410024275466,-0.004885486958757048,-0.0028375352112442838,38.39999999999999,0.0,1633.2800000000002,0.0,-2.0000000000000284,-2.0000000000000284,0.0,0.0
50.900000000000006,3.48318967880668,-0.1085158140740189,9.382377194202293,0.003043890316029768,-0.014021495260760889,0.001043192882437362,38.19999999999999,0.0,1637.1000000000001,0.0,-1.9999999999999574,-1.9999999999999574,0.0,0.0
51.0,3.270567181618685,-0.029929060657376685,9.451701182290332,-0.004293321124483709,-0.01714470309180767,0.008215932113392386,38.0,0.0,1640.9,0.0,-1.9999999999999574,-1.9999999999999574,0.0,0.0
51.1,3.486189153178184,0.022760244617515718,9.499498828712492,0.007927227551168595,-0.014693304965466992,0.022025146581296055,37.8,0.0,1644.68,0.0,-2.0000000000000284,-2.0000000000000284,0.0,0.0
51.2,3.253298511894518,0.26477853486336633,9.355754261796761,0.01918061922557825,0.005751554940347832,0.010530400858523584,37.599999999999994,0.0,1648.44,0.0,-2.0000000000000284,-2.0000000000000284,0.0,0.0
51.300000000000004,3.25805286058407,-0.0172792927111674,9.645788959896441,0.0024035986984804695,-0.021670697035871524,-0.0061718646170700235,37.39999999999999,0.0,1652.18,0.0,-2.0000000000000284,-2.0000000000000284,0.0,0.0
51.400000000000006,3.195072329602247,0.06649984747483326,9.45722093779034,0.013189707897936633,-0.02151101864038625,0.006435879365051602,37.19999999999999,0.0,1655.9,0.0,-1.9999999999999574,-1.9999999999999574,0.0,0.0
51.5,2.9502523086230856,0.13395684432262525,9.451540403959024,0.005196099720241182,-0.01063882960589766,0.01779464931657751,37.0,0.0,1659.6000000000001,0.0,-1.9999999999999574,-1.9999999999999574,0.0,0.0
51.6,3.379207892039925,0.10753164545178315,9.446281624095842,0.006798572852951322,-0.00906892567987349,0.013555556590207123,36.8,0.0,1663.2800000000002,0.0,-2.0000000000000284,-2.0000000000000284,0.0,0.0
51.7,3.4703713265796856,0.1805915839968779,9.356268840654248,0.004614173172731029,-0.014931415437586477,0.010723903111756757,36.599999999999994,0.0,1666.9400000000003,0.0,-2.0000000000000284,-2.0000000000000284,0.0,0.0
51.800000000000004,3.2905397043604783,-0.2604724509298246,9.291441634538504,-0.0018313889674376714,-0.005008597471408263,-0.007094769354188054,36.39999999999999,0.0,1670.5800000000004,0.0,-2.0000000000000284,-2.0000000000000284,0.0,0.0
51.900000000000006,3.2812960018339865,0.057721041341076806,9.436568841328546,-0.006557915001583629,0.008487071264165634,0.021554071130882955,36.19999999999999,0.0,1674.2000000000003,0.0,-1.9999999999999574,-1.9999999999999574,0.0,0.0
52.0,3.1504149698541783,-0.0718250375732231,9.539390360937123,-0.0025802937974698623,-0.0033939720066323417,0.012396531517246713,36.0,0.0,1677.8000000000002,0.0,-1.9999999999999574,-1.9999999999999574,0.0,0.0
52.1,2.936545779305004,0.21774534872790038,9.47661128977476,-0.003114931445621802,-0.002892341542214489,0.004624293550205188,35.8,0.0,1681.38,0.0,-2.0000000000000284,-2.0000000000000284,0.0,0.0
52.2,2.963268996914359,0.24424073411798536,9.471908055965953,0.005430021304473752,0.007515497705740427,-0.005211624575603002,35.599999999999994,0.0,1684.94,0.0,-2.0000000000000284,-2.0000000000000284,0.0,0.0
52.300000000000004,3.2939699772863817,-0.020146163634819036,9.592724827407833,-0.020272274203514955,-0.00299094300241269,-0.001028206557839616,35.39999999999999,0.0,1688.48,0.0,-2.0000000000000284,-2.0000000000000284,0.0,0.0
52.400000000000006,3.287788635026282,0.09050662810523032,9.35956532690202,-0.006121738641760435,-0.0031066536855732943,-0.003966422273152082,35.19999999999999,0.0,1692.0,0.0,-1.9999999999999574,-1.9999999999999574,0.0,0.0
52.5,3.3492467467489777,-0.03538108006711692,9.029660978227078,-0.002748220566218061,-0.012385438208439724,-0.011312758154609453,35.0,0.0,1695.5,0.0,-1.9999999999999574,-1.9999999999999574,0.0,0.0
52.6,3.0373351966977116,0.036411270774945506,9.665005335362594,0.0041318447386498,-0.008065033882157397,0.009559041951707026,34.8,0.0,1698.98,0.0,-2.0000000000000284,-2.0000000000000284,0.0,0.0
52.7,3.154085645898249,-0.08419005537447169,9.292554810890412,-0.016518288067517192,-0.005899237065594453,0.006580534899201318,34.599999999999994,0.0,1702.44,0.0,-2.0000000000000284,-2.0000000000000284,0.0,0.0
52.800000000000004,3.208455641928864,-0.04239503919210379,9.323847302020843,0.0070824619168496855,-0.01517131919946585,0.012760279138434753,34.39999999999999,0.0,1705.88,0.0,-2.0000000000000284,-2.0000000000000284,0.0,0.0
52.900000000000006,3.07261663959215,-0.09286528560295523,9.245691432532972,-0.0040140214688563665,0.007753124584779789,0.010156280884439565,34.19999999999999,0.0,1709.3000000000002,0.0,-1.9999999999999574,-1.9999999999999574,0.0,0.0
53.0,3.369712509235364,0.09832138189009038,9.300158736845768,-0.0023078922432755735,-0.009801991291174627,0.018305749040390402,34.0,0.0,1712.7000000000003,0.0,-1.9999999999999574,-1.9999999999999574,0.0,0.0
53.1,3.043430895467151,0.1540546534083666,9.599652291641675,0.019296202017160872,-0.006096865926294974,0.012123221595801622,33.8,0.0,1716.0800000000004,0.0,-2.0000000000000284,-2.0000000000000284,0.0,0.0
53.2,3.565196967911924,-0.0726462515400545,9.235453173995506,-0.017800100339077637,0.005127120288613314,-0.013831502080585839,33.599999999999994,0.0,1719.4400000000003,0.0,-2.0000000000000284,-2.0000000000000284,0.0,0.0
53.300000000000004,3.1671013344904093,0.08559697805584411,9.493485541649846,0.005254448641841723,0.00022289855800854044,0.017788658133133933,33.39999999999999,0.0,1722.7800000000002,0.0,-2.0000000000000284,-2.0000000000000284,0.0,0.0
53.400000000000006,3.0801017353203393,-0.08154927076877969,9.3498102943347,0.009301918118626101,0.007003985883950636,0.00951225319318508,33.19999999999999,0.0,1726.1000000000001,0.0,-1.9999999999999574,-1.9999999999999574,0.0,0.0
53.5,3.400473242464648,-0.15670613010645712,9.715792827857994,0.016232386217122582,0.005356219972457468,0.0228179890877106,33.0,0.0,1729.4,0.0,-1.9999999999999574,-1.9999999999999574,0.0,0.0
53.6,2.9744557112794316,-0.058667220439397774,9.355413692023067,0.008214793237573433,-0.012501407396021456,0.012574951493374856,32.8,0.0,1732.68,0.0,-2.0000000000000284,-2.0000000000000284,0.0,0.0
53.7,3.4285296140306047,0.1242804350125999,9.508271864674585,-0.00887873340900749,-0.010468509661253646,0.017496189052966668,32.599999999999994,0.0,1735.94,0.0,-2.0000000000000284,-2.0000000000000284,0.0,0.0
53.800000000000004,3.3398515430168976,0.014147072093368383,9.403022779260477,-0.019258078731113768,-0.012708524186844388,0.024114190871397236,32.39999999999999,0.0,1739.18,0.0,-2.0000000000000284,-2.0000000000000284,0.0,0.0
53.900000000000006,3.030880856780789,0.0484219731831621,9.616825807104604,-0.011549226680022926,-0.00015289525218916702,0.014379155375106551,32.19999999999999,0.0,1742.4,0.0,-1.9999999999999574,-1.9999999999999574,0.0,0.0
54.0,3.2248240907172465,0.45026045835001527,9.215419322293595,0.01158728529883879,-0.003728017373964644,0.01271920154836675,32.0,0.0,1745.6000000000001,0.0,-1.9999999999999574,-1.9999999999999574,0.0,0.0
54.1,3.2891452651859843,-0.08997342956649948,9.50005866999426,-0.01757901451398287,0.004032475005713938,0.007981584659905257,31.799999999999997,0.0,1748.7800000000002,0.0,-2.0000000000000284,-2.0000000000000284,0.0,0.0
54.2,3.318748217727563,0.1787177487630725,9.520852187156816,0.002480894197982762,-0.010810683366612922,-0.0021222076364905097,31.599999999999994,0.0,1751.9400000000003,0.0,-2.0000000000000284,-2.0000000000000284,0.0,0.0
54.300000000000004,3.400959385457697,0.23545031085589677,9.429992645678551,0.0014600274725327413,-0.01104614374993766,0.016727568452674448,31.39999999999999,0.0,1755.0800000000004,0.0,-2.0000000000000284,-2.0000000000000284,0.0,0.0
54.400000000000006,3.3227617159849254,0.3111826154695624,9.333960749548362,-0.002780078990182172,0.00031445922525572293,0.011464895377257707,31.19999999999999,0.0,1758.2000000000003,0.0,-1.9999999999999574,-1.9999999999999574,0.0,0.0
54.5,3.190599046799014,-0.11094416356805505,9.59792034046386,0.008211353625455817,-0.01116274100563725,0.018554428011054957,31.0,0.0,1761.3000000000002,0.0,-1.9999999999999574,-1.9999999999999574,0.0,0.0
54.6,3.398478998810588,0.04014447458716893,9.477648890481765,0.006540577711159071,-0.010617030702562582,0.005300314791640822,30.799999999999997,0.0,1764.38,0.0,-2.0000000000000284,-2.0000000000000284,0.0,0.0
54.7,2.9000916607397205,0.1514683468254403,9.23148522775908,0.01603419828428999,-0.005301200939664503,0.0028833301806882312,30.599999999999994,0.0,1767.44,0.0,-2.0000000000000284,-2.0000000000000284,0.0,0.0
54.800000000000004,3.128789106518422,-0.023205831088311455,9.678488912897565,-0.023878086565350794,0.010769653860881878,0.008380234811017082,30.39999999999999,0.0,1770.48,0.0,-2.0000000000000284,-2.0000000000000284,0.0,0.0
54.900000000000006,3.0418959452525764,-0.1412968589573857,9.717168165206555,-0.008455068799427312,-0.013533505105959595,0.016373145423647293,30.19999999999999,0.0,1773.5,0.0,-1.9999999999999574,-1.9999999999999574,0.0,0.0
55.0,3.273732123874046,-0.12068883648045982,9.498202957436016,-0.009257526836402772,0.009008213984226052,0.015613709648731336,30.0,0.0,1776.5,0.0,-1.9999999999999574,-1.9999999999999574,0.0,0.0
55.1,3.302750122254389,0.07424915918705248,9.729887429855465,0.000996863273882253,-0.013818741254208011,0.00949473912832307,29.799999999999997,0.0,1779.48,0.0,-2.0000000000000284,-2.0000000000000284,0.0,0.0
55.2,3.5358562498616646,-0.13221392397787782,9.411489796121261,0.005164460381014526,-0.0025390484900573917,-0.004823035803773146,29.599999999999994,0.0,1782.44,0.0,-2.0000000000000284,-2.0000000000000284,0.0,0.0
55.300000000000004,3.3912278708656682,0.3680061083025889,9.495128929978945,-0.008040682897360003,-0.01748960525053475,0.007579759812211808,29.39999999999999,0.0,1785.38,0.0,-2.0000000000000284,-2.0000000000000284,0.0,0.0
55.400000000000006,3.3885307939285974,0.09127516197430724,9.465348634987496,-0.004892716517893062,-0.012921636327180897,0.01334751326324882,29.19999999999999,0.0,1788.3000000000002,0.0,-1.9999999999999574,-1.9999999999999574,0.0,0.0
55.5,3.3600149356389966,-0.21185946800360997,9.704185057852426,0.006740712208940013,0.011995946451457936,-0.00842127748485115,29.0,0.0,1791.2000000000003,0.0,-1.9999999999999574,-1.9999999999999574,0.0,0.0
55.6,3.018075569118782,-0.0023453964650945354,9.54112687515964,0.018963608229269638,0.0050607891381513155,0.0025731872318796667,28.799999999999997,0.0,1794.0800000000004,0.0,-2.0000000000000284,-2.0000000000000284,0.0,0.0
55.7,3.0689938112812136,0.2045000859078725,9.321003397262752,0.01728468554772322,-0.004843846496065093,0.020905820726178505,28.599999999999994,0.0,1796.9400000000003,0.0,-2.0000000000000284,-2.0000000000000284,0.0,0.0
55.800000000000004,3.3247888859399892,-0.000549323416368739,9.387799755351441,-0.0024090787734607983,0.0022831669237523755,0.005771564962177168,28.39999999999999,0.0,1799.7800000000002,0.0,-2.0000000000000284,-2.0000000000000284,0.0,0.0
55.900000000000006,3.133877481220853,-0.004844711547644834,9.477495765583196,-0.02028734094414812,0.002581681147886987,-0.0047972122471680685,28.19999999999999,0.0,1802.6000000000001,0.0,-1.9999999999999574,-1.9999999999999574,0.0,0.0
56.0,3.0499493319502973,-0.23310165206660657,9.196625336445141,-0.012554475031122891,-0.009090209576304905,0.024532591375265683,28.0,0.0,1805.4,0.0,-1.9999999999999574,-1.9999999999999574,0.0,0.0
56.1,3.144067241046817,0.0466625159402047,9.525781419101309,0.0023106518621584873,-0.0027744346072599364,-0.006952937635992446,27.799999999999997,0.0,1808.18,0.0,-2.0000000000000284,-2.0000000000000284,0.0,0.0
56.2,3.440588324672979,0.29107949654568277,9.213310407006956,-0.009240285908863794,-0.0047981034237700605,-0.004645377949101913,27.599999999999994,0.0,1810.94,0.0,-2.0000000000000284,-2.0000000000000284,0.0,0.0
56.300000000000004,3.2988440254494775,-0.08924083036099195,9.790467621296349,0.012905485943435963,0.0001257403063221487,0.015269862633197323,27.39999999999999,0.0,1813.68,0.0,-2.0000000000000284,-2.0000000000000284,0.0,0.0
56.400000000000006,3.3888342560847553,-0.06459212320873647,9.343276624444028,0.0017814306296964745,0.006616361244979441,0.006390603986534177,27.19999999999999,0.0,1816.4,0.0,-1.9999999999999574,-1.9999999999999574,0.0,0.0
56.5,2.986399720102509,-0.10042366659262633,9.454613281586168,0.0002433439567416974,0.017725421767898084,-0.00885987942398998,27.0,0.0,1819.1000000000001,0.0,-1.9999999999999574,-1.9999999999999574,0.0,0.0
56.6,3.2987875787064787,0.24336696624924342,9.806426672938779,-0.003043974231839613,0.0029142945272019978,0.010697603571986469,26.799999999999997,0.0,1821.7800000000002,0.0,-2.0000000000000284,-2.0000000000000284,0.0,0.0
56.7,3.252271452164091,0.005173219814104093,9.531105519550366,-0.024322460852196852,0.004820694900626313,0.006261779036619672,26.599999999999994,0.0,1824.4400000000003,0.0,-2.0000000000000284,-2.0000000000000284,0.0,0.0
56.800000000000004,3.189577957914358,0.32702932935793366,9.364469108306777,-0.003030759890650308,0.01791553302204734,-0.003320613048498567,26.39999999999999,0.0,1827.0800000000004,0.0,-2.0000000000000284,-2.0000000000000284,0.0,0.0
56.900000000000006,3.140431899990678,-0.002053813514627495,9.591819383444756,0.0030780250735331343,-0.014926253471522627,-0.0003216856312718954,26.19999999999999,0.0,1829.7000000000003,0.0,-1.9999999999999574,-1.9999999999999574,0.0,0.0
57.0,3.131846027449327,0.008416843216543166,9.529585759919799,0.0051820575588797215,-0.01976011754048402,0.01563940987560856,26.0,0.0,1832.3000000000002,0.0,-1.9999999999999574,-1.9999999999999574,0.0,0.0
57.1,3.260834519330591,0.22767980713908592,9.53233896021896,0.01201322957735762,0.0026654531145012695,0.018462257562027483,25.799999999999997,0.0,1834.88,0.0,-2.0000000000000284,-2.0000000000000284,0.0,0.0
57.2,3.301286787833764,0.005312713033564393,9.806574419192392,0.00989037122279892,0.0037374442100441317,-0.007763044165383359,25.599999999999994,0.0,1837.44,0.0,-2.0000000000000284,-2.0000000000000284,0.0,0.0
57.300000000000004,3.029703049811567,0.063907322321278,9.487537390790596,-0.005141225650083162,-0.0005901730038793999,0.020886269280435958,25.39999999999999,0.0,1839.98,0.0,-2.0000000000000284,-2.0000000000000284,0.0,0.0
57.400000000000006,3.3272595636137035,-0.15115127646291074,9.448982887053882,-0.007049664808525609,-0.005876999164085612,0.000863843343703573,25.19999999999999,0.0,1842.5,0.0,-1.9999999999999574,-1.9999999999999574,0.0,0.0
57.5,3.151302355040558,-0.16827030579600924,9.446561008897595,-0.0046060763684731,-0.03129448690002268,0.02552972024501663,25.0,0.0,1845.0,0.0,-1.9999999999999574,-1.9999999999999574,0.0,0.0
57.6,3.3862646405635983,-0.0364451087387494,9.468532068586448,-0.010716543473175619,0.014957228778108652,0.023972886947731118,24.799999999999997,0.0,1847.48,0.0,-2.0000000000000284,-2.0000000000000284,0.0,0.0
57.7,3.2464532516680764,0.17352959662780168,9.492002227965449,-0.012367254388759307,-0.006118233689636573,0.006319279667719571,24.599999999999994,0.0,1849.94,0.0,-2.0000000000000284,-2.0000000000000284,0.0,0.0
57.800000000000004,3.154767034619581,-0.012797991615255393,9.451999277498992,0.00019121502134538694,-0.001477415095025168,-0.005606050663966009,24.39999999999999,0.0,1852.38,0.0,-2.0000000000000284,-2.0000000000000284,0.0,0.0
57.900000000000006,3.1153967700619685,-0.1726876398549954,9.612381543578254,-0.020056469418403246,0.009535903433169254,0.018863493972628435,24.19999999999999,0.0,1854.8000000000002,0.0,-1.9999999999999574,-1.9999999999999574,0.0,0.0
58.0,3.1776221043837656,-0.37047056317409477,9.41151262683023,0.00035815838711180726,-0.012105982199289135,-0.0001521839380824279,24.0,0.0,1857.2000000000003,0.0,-1.9999999999999574,-1.9999999999999574,0.0,0.0
58.1,3.4524784722606,0.11973907434526115,9.327024593968645,-0.01497599169595432,-0.005270173176097711,0.0028654322064956177,23.799999999999997,0.0,1859.5800000000004,0.0,-2.0000000000000284,-2.0000000000000284,0.0,0.0
58.2,3.297379070535595,-0.060297506885148844,9.542434147429638,0.020351540400602292,0.006155010224442627,0.004519114926692274,23.599999999999994,0.0,1861.9400000000003,0.0,-2.0000000000000284,-2.0000000000000284,0.0,0.0
58.300000000000004,3.1954766217731034,-0.03350097012698068,9.642805347993182,-0.005273134459513029,-0.0015477729100001744,0.005511979018810853,23.39999999999999,0.0,1864.2800000000002,0.0,-2.0000000000000284,-2.0000000000000284,0.0,0.0
58.400000000000006,3.147681563509429,-0.18586983218261513,9.514155386667975,0.0003899602814461645,0.003002404694365699,-0.00033600306439166873,23.19999999999999,0.0,1866.6000000000001,0.0,-1.9999999999999574,-1.9999999999999574,0.0,0.0
58.5,3.406072387253116,-0.11151606718177672,9.722515253728007,-0.016476365098282614,0.002347700645568912,0.009754306825266235,23.0,0.0,1868.9,0.0,-1.9999999999999574,-1.9999999999999574,0.0,0.0
58.6,3.1036156322399653,0.08365909067915189,9.657637011589383,-0.021168188393540645,0.003027448074908146,-0.019932708203300776,22.799999999999997,0.0,1871.18,0.0,-2.0000000000000284,-2.0000000000000284,0.0,0.0
58.7,3.0780994719026165,0.2643749547351418,9.378441906116551,-0.010738799644089726,-0.003979377289846819,0.025679063381635524,22.599999999999994,0.0,1873.44,0.0,-2.0000000000000284,-2.0000000000000284,0.0,0.0
58.800000000000004,2.9481968553501936,-0.13769648674590168,9.690323963602303,0.019577023435377327,-0.0030343122429028393,-0.007390527025266424,22.39999999999999,0.0,1875.68,0.0,-2.0000000000000284,-2.0000000000000284,0.0,0.0
58.900000000000006,3.5373257177025326,0.25916635876237953,9.567551259289658,-0.0071240234893742,-0.0024902934083803675,0.0033963991895516925,22.19999999999999,0.0,1877.9,0.0,-1.9999999999999574,-1.9999999999999574,0.0,0.0
59.0,3.2725768881234956,0.2376502157197004,9.597621767295934,-0.009773760769847581,0.011764964500195377,0.008131321400131553,22.0,0.0,1880.1000000000001,0.0,-1.9999999999999574,-1.9999999999999574,0.0,0.0
59.1,3.326009061809935,0.2399811288917904,9.298972173698326,0.0006417442129353707,-0.007314545513592151,-0.010678594253654559,21.799999999999997,0.0,1882.2800000000002,0.0,-2.0000000000000284,-2.0000000000000284,0.0,0.0
59.2,3.2749556890718354,0.39673348273766357,9.189697549449496,0.0006771938895052968,0.0044054293507477344,0.006230782016561812,21.599999999999994,0.0,1884.4400000000003,0.0,-2.0000000000000284,-2.0000000000000284,0.0,0.0
59.300000000000004,3.2059799845537365,-0.17488245451687365,9.500627222566385,-0.006567639770159264,-0.02389921704978553,0.01694592220513731,21.39999999999999,0.0,1886.5800000000004,0.0,-2.0000000000000284,-2.0000000000000284,0.0,0.0
59.400000000000006,3.366707065407465,0.027749146527661972,9.500070414356179,0.011743180127155615,0.00024339656778082615,0.014040175547613144,21.19999999999999,0.0,1888.7000000000003,0.0,-1.9999999999999574,-1.9999999999999574,0.0,0.0
59.5,3.1783268623000813,0.21679756078609197,9.513827070015227,0.0029405194360587403,-0.014700610887120321,0.007869558543017088,21.0,0.0,1890.8000000000002,0.0,-1.9999999999999574,-1.9999999999999574,0.0,0.0
59.6,3.0981559548069297,-0.07574240897927412,9.343402866877941,-0.00966234931899225,0.019247714030169616,0.018313390619884032,20.799999999999997,0.0,1892.88,0.0,-2.0000000000000284,-2.0000000000000284,0.0,0.0
59.7,3.511004317752737,-0.16343425293333458,9.476397273611994,-0.011935076252040957,-0.00895694877197064,-0.004181269834165749,20.599999999999994,0.0,1894.94,0.0,-2.0000000000000284,-2.0000000000000284,0.0,0.0
59.800000000000004,3.4088867933973317,-0.03943445171526397,9.625966111179462,0.00704120889588518,0.02103638752104789,-0.009794442231397239,20.39999999999999,0.0,1896.98,0.0,-2.0000000000000284,-2.0000000000000284,0.0,0.0
59.900000000000006,3.411834178399179,0.19196613056010914,9.31970238542127,0.011071333364731595,0.0013614496302622884,0.0027252374004659223,20.19999999999999,0.0,1899.0,0.0,-1.9999999999999574,-1.9999999999999574,0.0,0.0
60.0,3.099358869385359,-0.08786641771737788,9.773181025493212,0.0010068281895748263,0.005821300015314591,-0.0029089938166755322,20.0,0.0,1901.0,0.0,-1.9999999999999574,-1.9999999999999574,0.0,0.0
60.1,3.1059712504978516,0.1822977213874913,9.26327277939263,-0.0031521376790527153,-0.0016597258892776796,0.006113726018400524,19.799999999999997,0.0,1902.98,0.0,-2.0000000000000284,-2.0000000000000284,0.0,0.0
60.2,3.196085199678674,0.07937296716438846,9.569637574498032,0.0083463754545933,-0.011858038086678267,0.0021584490207120282,19.599999999999994,0.0,1904.94,0.0,-2.0000000000000284,-2.0000000000000284,0.0,0.0
60.300000000000004,3.402163621712638,0.15419707813608083,9.2597802934032,0.004514799003522017,-0.0217822524937481,0.005469349020603697,19.39999999999999,0.0,1906.88,0.0,-2.0000000000000284,-2.0000000000000284,0.0,0.0
60.400000000000006,3.5076142449430554,-0.12218390759034793,9.340560754301586,0.008640297815728594,-0.01742801515209646,-0.0013275502988503909,19.19999999999999,0.0,1908.8000000000002,0.0,-1.9999999999999574,-1.9999999999999574,0.0,0.0
60.5,3.3124153630684217,-0.07514287715341046,9.430313713043677,0.008441857103150346,0.0022154608353656124,0.007668183962954019,19.0,0.0,1910.7000000000003,0.0,-1.9999999999999574,-1.9999999999999574,0.0,0.0
60.6,3.172080850540592,0.07550916729034331,9.447149309110396,0.005578056099257847,-0.006969320251179783,0.003174310256204589,18.799999999999997,0.0,1912.5800000000004,0.0,-2.0000000000000284,-2.0000000000000284,0.0,0.0
60.7,3.0744555235482953,0.014748858499064616,9.344059081581033,-0.010140464501619935,0.0005866114785538813,0.007127397758576603,18.599999999999994,0.0,1914.4400000000003,0.0,-2.0000000000000284,-2.0000000000000284,0.0,0.0
60.800000000000004,3.3403802526733832,-0.04466883543626485,9.526917138150873,0.006507975722736632,0.002447738078315948,-0.0032565368280214205,18.39999999999999,0.0,1916.2800000000002,0.0,-2.0000000000000284,-2.0000000000000284,0.0,0.0
60.900000000000006,3.245353714771837,0.07462104440819921,9.466785981161514,-0.019864776583710848,-0.00039510376026519927,0.027125310393972424,18.19999999999999,0.0,1918.1000000000001,0.0,-1.9999999999999574,-1.9999999999999574,0.0,0.0
61.0,3.1689433021176114,-0.08921156467829816,9.521711495082034,0.004123782104665717,0.009927351654164144,-0.007578681559088879,18.0,0.0,1919.9,0.0,-1.9999999999999574,-1.9999999999999574,0.0,0.0
61.1,3.3326562303173466,0.10856330918771952,9.444387230584278,0.0043868731792168995,0.008294574815983573,0.013723153800284504,17.799999999999997,0.0,1921.68,0.0,-2.0000000000000284,-2.0000000000000284,0.0,0.0
61.2,3.0514962956200384,0.14302372801332267,9.456005920370481,0.001728740980155154,-0.0012680300899830551,0.0034975701120174003,17.599999999999994,0.0,1923.44,0.0,-2.0000000000000284,-2.0000000000000284,0.0,0.0
61.300000000000004,3.401705316997157,0.007442306022618198,9.297777291867884,-0.0029352985596972888,-0.0002130528318952439,0.017292147842970503,17.39999999999999,0.0,1925.18,0.0,-2.0000000000000284,-2.0000000000000284,0.0,0.0
61.400000000000006,3.313413395173484,-0.10758029181205657,9.838487698627157,0.0036477531097797965,0.010753907379990149,0.0034828556642277084,17.19999999999999,0.0,1926.9,0.0,-1.9999999999999574,-1.9999999999999574,0.0,0.0
61.5,3.302953079136976,0.1459202756777607,9.648438417888462,0.01157368305378225,0.006721970000729778,0.001849132688058914,17.0,0.0,1928.6000000000001,0.0,-1.9999999999999574,-1.9999999999999574,0.0,0.0
61.6,3.137187286137688,0.06989112654862963,9.60567842197652,-0.0012272070077660705,0.008651719657143866,0.019526167454861795,16.799999999999997,0.0,1930.2800000000002,0.0,-2.0000000000000284,-2.0000000000000284,0.0,0.0
61.7,3.0855010545700847,-0.10553810556944197,9.444652952289559,0.004076126681891964,-0.00724567013767051,0.018522026788671445,16.599999999999994,0.0,1931.9400000000003,0.0,-2.0000000000000284,-2.0000000000000284,0.0,0.0
61.800000000000004,3.286559221658865,0.025917057236110923,9.25032278254508,-0.012158158164275071,0.0008100925028180629,-0.016325956261548362,16.39999999999999,0.0,1933.5800000000004,0.0,-2.0000000000000284,-2.0000000000000284,0.0,0.0
61.900000000000006,3.3748448038777696,-0.003723076655848045,9.952173156564534,0.024079162506161107,-0.0038144906924751677,0.003936629974686851,16.19999999999999,0.0,1935.2000000000003,0.0,-1.9999999999999574,-1.9999999999999574,0.0,0.0
62.0,3.3722864195314632,0.2754758914877057,9.220004852509922,-0.016863754653546864,-0.008220348055543815,0.010827375831738643,16.0,0.0,1936.8000000000002,0.0,-1.9999999999999574,-1.9999999999999574,0.0,0.0
62.1,3.297480231007237,0.1804657182475775,9.285754581870563,-0.022161438629688765,0.006580141953021455,-0.0032819627296523457,15.799999999999997,0.0,1938.38,0.0,-2.0000000000000284,-2.0000000000000284,0.0,0.0
62.2,2.920176012772802,0.04175956189390724,9.58468556435816,-0.00022057132121277266,-0.006578483861824892,0.0034063776785409347,15.599999999999994,0.0,1939.94,0.0,-2.0000000000000284,-2.0000000000000284,0.0,0.0
62.300000000000004,3.16736177807098,-0.18220706679102508,9.358507109576795,0.006212799050138145,0.0012167854137650012,0.006680598059668202,15.399999999999991,0.0,1941.48,0.0,-2.0000000000000284,-2.0000000000000284,0.0,0.0
62.400000000000006,3.0736769201531517,-0.0072254743203500685,9.139149454158895,0.0027847666388538975,0.012288577078135673,-0.009741321320421058,15.199999999999989,0.0,1943.0,0.0,-1.9999999999999574,-1.9999999999999574,0.0,0.0
62.5,3.1350600414334955,0.06936601680651944,9.653635606289447,-0.0034822461630014947,-0.008922503292658965,-0.014689231424160832,15.0,0.0,1944.5,0.0,-1.9999999999999574,-1.9999999999999574,0.0,0.0
62.6,3.2384649118273137,0.3263114060215616,9.50731298042006,0.0007772102081628669,0.0012208231076698546,0.004889079960513979,14.799999999999997,0.0,1945.98,0.0,-2.0000000000000284,-2.0000000000000284,0.0,0.0
62.7,3.1009970365920783,0.14349198735165578,9.499573439592123,0.0011761325193365732,-0.0117536602727825,0.018035079319347593,14.599999999999994,0.0,1947.44,0.0,-2.0000000000000284,-2.0000000000000284,0.0,0.0
62.800000000000004,3.322654604231064,-0.06293812560509529,9.61598293917765,-0.003975708383852071,-0.00982003492511037,-0.0025970311748028706,14.399999999999991,0.0,1948.88,0.0,-2.0000000000000284,-2.0000000000000284,0.0,0.0
62.900000000000006,2.957288909467945,0.09073135706273086,9.191037479374572,-0.011284438312657626,-0.02275588009078533,0.00413930307209107,14.199999999999989,0.0,1950.3000000000002,0.0,-1.9999999999999574,-1.9999999999999574,0.0,0.0
63.0,3.200401123390378,-0.029004431977954607,9.309322556924737,-0.0107223375343664,0.0026436986354657415,-0.0005055193170848769,14.0,0.0,1951.7000000000003,0.0,-1.9999999999999574,-1.9999999999999574,0.0,0.0
63.1,3.270402940661519,-0.11278730291863336,9.492868622541021,0.014032780373160636,0.0038616580039278333,0.0008758618178351966,13.799999999999997,0.0,1953.0800000000004,0.0,-2.0000000000000284,-2.0000000000000284,0.0,0.0
63.2,3.2615290379844866,-0.01609977617953195,9.466891238829568,-0.002256110521485036,-0.003643352058853912,0.007120933530741752,13.599999999999994,0.0,1954.4400000000003,0.0,-2.0000000000000284,-2.0000000000000284,0.0,0.0
63.300000000000004,3.073945387493805,-0.13238182404849674,9.257427828050679,-0.015002711045037097,-0.014172826922204795,0.006594625068041292,13.399999999999991,0.0,1955.7800000000002,0.0,-2.0000000000000284,-2.0000000000000284,0.0,0.0
63.400000000000006,3.0890310651073762,0.09704216963466444,9.470916273438208,-0.018685042134380537,0.004549755842216898,0.013107986455917098,13.199999999999989,0.0,1957.1000000000001,0.0,-1.9999999999999574,-1.9999999999999574,0.0,0.0
