time,accel_x,accel_y,accel_z,gyro_x,gyro_y,gyro_z,true_speed,true_heading,true_x,true_y,true_accel_x_vehicle,true_accel_x_world,true_accel_y_world,true_accel_z_world,gnss_x,gnss_y
0.0,6.761557930520562,-0.0007396451756776,7.562862491840448,0.0162302985640802,-0.0043415337472333,0.0026586304305081,0.0,0.0,0.0,0.0,2.0,2.0,0.0,0.0,1.9868566120449307,-0.5530572046847386
0.1,6.923932729894986,0.1351152093729363,7.395288053235101,0.0064256004358596,-0.0066341769281246,0.0003427024642974,0.2,0.0,0.02,0.0,2.0,2.0,0.0,0.0,,
0.2,6.723345148303783,-0.2669920366986696,7.206971536248389,-0.0046228752924097,-0.0121283112033442,0.0081424733259527,0.4,0.0,0.06,0.0,2.0000000000000004,2.0000000000000004,0.0,0.0,,
0.3,6.550847196240695,-0.1918455552002937,7.685556526463578,-0.0012577630048653,-0.0013247179531207,-0.0092474818621345,0.6000000000000001,0.0,0.12,0.0,2.0,2.0,0.0,0.0,,
0.4,6.605393398890099,0.0366383884564799,7.293060174511999,0.0047569801834567,-0.008006386899188,0.0020830625020672,0.8,0.0,0.2,0.0,2.0,2.0,0.0,0.0,,
0.5,6.5967948157344685,0.2978417276763406,7.463684627414654,-0.009577109289559,0.0062254491210318,-0.0072084364997102,1.0,0.0,0.3,0.0,2.0000000000000004,2.0000000000000004,0.0,0.0,,
0.6000000000000001,6.718380346819591,-0.2739505185819663,7.26648130379058,0.0029686123586912,0.0053846657999541,0.0067136828118997,1.2000000000000002,0.0,0.42,0.0,2.0000000000000004,2.0000000000000004,0.0,0.0,,
0.7000000000000001,6.669703565210641,-0.0251655543383933,7.24393091257023,-0.006198442083947,-0.0066063877095978,0.0155712222621891,1.4,0.0,0.56,0.0,2.0,2.0,0.0,0.0,,
0.8,6.738593551004146,-0.2444560233044101,7.514321806534563,-0.0028508228041631,-0.0087692200030595,0.0111167628884086,1.6,0.0,0.7200000000000001,0.0,2.0,2.0,0.0,0.0,,
0.9,6.841700735943269,0.1596920178674297,7.339826582641948,-0.0020921237585121,0.0013126343140356,0.0147554512712235,1.8,0.0,0.9000000000000001,0.0,2.0,2.0,0.0,0.0,,
1.0,6.615174671892084,-0.0078488464995725,7.29975896502444,-0.0109620662408067,0.0061252582239419,0.0185624002857082,2.0,0.0,1.1,0.0,2.0000000000000004,2.0000000000000004,0.0,0.0,3.69075415240277,6.092119425632101
1.1,6.676249289331828,0.1705299346838036,7.519954614882488,-0.0054511975460512,0.0016139560550841,0.0203803656646596,2.2,0.0,1.32,0.0,2.0000000000000018,2.0000000000000018,0.0,0.0,,
1.2000000000000002,6.681676901702384,0.2546965483721009,7.072747445511883,0.0092190250437522,-0.0011295293176182,0.0020099264953413,2.4000000000000004,0.0,1.56,0.0,2.0,2.0,0.0,0.0,,
1.3,6.700814924049202,-0.2781353371901339,7.432758427949717,0.0045711257151174,0.0127789404474151,-0.0001827021827364,2.6,0.0,1.82,0.0,2.0,2.0,0.0,0.0,,
1.4,6.565776767134898,-0.0552635565376804,7.603019528780655,0.0042875110965968,-0.0072976020376703,0.0101326743311335,2.8000000000000003,0.0,2.1,0.0,2.0,2.0,0.0,0.0,,
1.5,6.701612439971083,0.1652967485799333,7.360401247043741,-0.0022766214659776,-0.0059210815313215,-0.0096351494813211,3.0,0.0,2.4000000000000004,0.0,2.0,2.0,0.0,0.0,,
1.6,6.731468849128565,0.0591582908269834,7.466476229621713,-0.0013458713337514,-0.0161537074205041,0.0007935467723464,3.2,0.0,2.7200000000000006,0.0,2.0000000000000018,2.0000000000000018,0.0,0.0,,
1.7000000000000002,6.635643630089861,-0.1003415903832428,7.441516354375443,0.0050405085681453,0.0168618590121053,0.0067457781283183,3.4000000000000004,0.0,3.0600000000000005,0.0,2.0,2.0,0.0,0.0,,
1.8,6.725683366177291,0.0088331126350749,7.177893528830488,0.0007348612455078,-0.0013976979005897,0.0296324211248528,3.6,0.0,3.4200000000000004,0.0,2.0,2.0,0.0,0.0,,
1.9,6.658196662851709,0.0652321013500418,7.460502445669558,-0.0106867803761953,0.0094282281451502,0.0125193303268677,3.8,0.0,3.8,0.0,2.0,2.0,0.0,0.0,,
2.0,6.805705599625334,-0.1164081182192108,7.676128357765759,-0.0130185106279228,0.0038685709380027,0.0269045562580997,4.0,0.0,4.2,0.0,2.0,2.0,0.0,0.0,3.2633865011066563,-0.9365478277967222
2.1,6.538470358799275,-0.0649446594404157,7.480656915888489,-0.0040347565411619,-0.0175066343106613,0.0056856297480602,4.2,0.0,4.62,0.0,2.0000000000000018,2.0000000000000018,0.0,0.0,,
2.2,6.527705250509963,0.0910388645952772,7.327795575990273,0.0164993440501753,-0.0098325329233623,0.0017793848379432,4.4,0.0,5.0600000000000005,0.0,2.0000000000000018,2.0000000000000018,0.0,0.0,,
2.3000000000000003,6.809078390174329,-0.1646296474650933,7.499828201315963,0.0140714275428242,-0.0180748323456122,0.006846338585323,4.6000000000000005,0.0,5.5200000000000005,0.0,2.0000000000000018,2.0000000000000018,0.0,0.0,,
2.4000000000000004,6.7260332267061385,0.1372734307665965,7.280166604493633,-0.0122045661308427,0.0032194156561689,0.0079698467323318,4.800000000000001,0.0,6.000000000000001,0.0,1.9999999999999971,1.9999999999999971,0.0,0.0,,
2.5,6.724624735120757,0.0719672314245463,7.363705502888571,0.00332253697161,0.0009307247329868,-0.0021435141802636,5.0,0.0,6.500000000000001,0.0,1.9999999999999971,1.9999999999999971,0.0,0.0,,
2.6,6.9669169842405925,0.0910749381367681,7.287013686544946,0.0075655360863382,-0.0117468167022732,0.0128708460374245,5.2,0.0,7.020000000000001,0.0,2.0000000000000018,2.0000000000000018,0.0,0.0,,
2.7,6.860840144419989,-0.1031023477527565,7.610215630511991,0.0051278092693649,0.0062206015999449,0.0239679298265394,5.4,0.0,7.560000000000001,0.0,2.0000000000000018,2.0000000000000018,0.0,0.0,,
2.8000000000000003,6.650242590168448,-0.0930604246536234,7.332282046681515,-0.0071581028496543,-0.002771017094141,0.0084115197481664,5.6000000000000005,0.0,8.120000000000001,0.0,2.0000000000000018,2.0000000000000018,0.0,0.0,,
2.9000000000000004,6.728554427468378,0.1440774873554035,7.467659494907031,0.0155353407715731,-0.0046465683323795,0.0322016916658961,5.800000000000001,0.0,8.700000000000001,0.0,1.9999999999999971,1.9999999999999971,0.0,0.0,,
3.0,6.780900909733626,-0.1085736334624423,7.305075336416178,0.0058247241524318,-0.0042346278532585,0.0121400049409209,6.0,0.0,9.3,0.0,1.9999999999999971,1.9999999999999971,0.0,0.0,15.616851262029567,3.069738916611635
3.1,6.758036451254911,0.009075663101469,7.338690153415083,-0.0141484722468586,-0.0064651495206702,0.0135639879432347,6.2,0.0,9.920000000000002,0.0,2.0000000000000018,2.0000000000000018,0.0,0.0,,
3.2,6.719164869188409,-0.1668608168067982,7.491686350003021,0.0048531737972883,-0.0108385743620113,0.0065372510594552,6.4,0.0,10.560000000000002,0.0,2.0000000000000018,2.0000000000000018,0.0,0.0,,
3.3000000000000003,6.695782115335779,-0.1514455446745934,7.519377315177586,0.0066078452636823,0.0088305124317527,0.015538020520349,6.6000000000000005,0.0,11.220000000000002,0.0,2.0000000000000018,2.0000000000000018,0.0,0.0,,
3.4000000000000004,6.480400402375311,-0.1206737559872684,7.542964501206644,0.006137859509122,0.0031504768630604,0.0435273149065472,6.800000000000001,0.0,11.900000000000002,0.0,1.9999999999999971,1.9999999999999971,0.0,0.0,,
3.5,6.77268438417285,0.1903348460270898,7.608809475649325,0.0075139125130579,-0.0051526924464034,0.0125896922049326,7.0,0.0,12.6,0.0,1.9999999999999971,1.9999999999999971,0.0,0.0,,
3.6,6.571127025388243,-0.0155227910110013,7.392904678950978,0.0018187413938632,0.021146585666735,-0.0136726519259174,7.2,0.0,13.320000000000002,0.0,2.0000000000000018,2.0000000000000018,0.0,0.0,,
3.7,6.789989836125056,-0.2219073806784477,7.394919431256929,0.0118895059696736,-0.0013571998090453,-0.005777447779293,7.4,0.0,14.060000000000002,0.0,2.0000000000000018,2.0000000000000018,0.0,0.0,,
3.8,6.579755251179884,0.1219396623402013,7.356154216367773,0.0031645858958197,-0.0015442816009618,-0.0015160034760581,7.6,0.0,14.820000000000002,0.0,2.0000000000000018,2.0000000000000018,0.0,0.0,,
3.9,7.008642420967674,0.1150878533477016,7.161937823126704,0.0028645431476942,-0.0086178646476838,0.0135243333479622,7.800000000000001,0.0,15.6,0.0,1.9999999999999971,1.9999999999999971,0.0,0.0,,
4.0,6.568172696803973,0.0027895337799651,7.541457302972412,0.0096575519417012,-0.0140029640705577,0.0016549876415905,8.0,0.0,16.400000000000002,0.0,2.0000000000000018,2.0000000000000018,0.0,0.0,14.522102456260194,2.1702401743438586
4.1000000000000005,6.615809010894735,-0.0779993848860567,7.730527347167508,0.0050498171096095,-0.0146088395433504,0.0141786194705477,8.200000000000001,0.0,17.220000000000002,0.0,2.0000000000000018,2.0000000000000018,0.0,0.0,,
4.2,7.0053742371207655,0.174869789082672,7.237803716232245,-0.0038423407286625,0.0106691114918662,-0.0020766946561878,8.4,0.0,18.06,0.0,1.999999999999993,1.999999999999993,0.0,0.0,,
4.3,6.753623721790813,0.1361951080144005,7.326669640388631,0.0004047464393819,-0.0344126734006907,-0.0052438764133428,8.6,0.0,18.92,0.0,2.0000000000000018,2.0000000000000018,0.0,0.0,,
4.4,6.6491655848599045,-0.1671674772947274,7.710570906715088,-0.0133014137796063,-0.0064004448669698,0.0063074057728609,8.8,0.0,19.8,0.0,2.0000000000000018,2.0000000000000018,0.0,0.0,,
4.5,6.903241800928796,-0.1953793226769159,7.640183773948587,0.0011023306101958,-0.0118150865104795,0.0096210347426327,9.0,0.0,20.7,0.0,2.0000000000000018,2.0000000000000018,0.0,0.0,,
4.6000000000000005,6.716909761904899,-0.0700325315738192,7.476179523873846,-0.0028531359686176,-0.0008648265474875,0.0116213067452104,9.2,0.0,21.62,0.0,2.0000000000000018,2.0000000000000018,0.0,0.0,,
4.7,6.924953329990681,-0.1656723248240273,7.785664217323783,-0.018520877995225,-0.0035178509503558,0.0108831720648457,9.4,0.0,22.56,0.0,2.0000000000000018,2.0000000000000018,0.0,0.0,,
4.800000000000001,6.729199587729133,-0.073404927973089,7.434490873571752,-0.0039300093465883,-0.0078936475694421,0.0134960209702102,9.6,0.0,23.520000000000003,0.0,2.0000000000000018,2.0000000000000018,0.0,0.0,,
4.9,6.740603130463628,-0.0839364392890981,7.600649192440335,0.004072995208766,0.0061286211883896,0.0112962884192361,9.8,0.0,24.500000000000004,0.0,1.999999999999993,1.999999999999993,0.0,0.0,,
5.0,6.562701555930568,-0.0640271560295454,7.577803251893832,0.0071037026543346,-0.0022090159396414,0.0061732738330878,10.0,0.0,25.500000000000004,0.0,2.0000000000000018,2.0000000000000018,0.0,0.0,23.646329228750155,-1.8629190142810275
5.1000000000000005,6.878700541937143,-0.0687357083253744,7.547773818300849,-0.0010219265243389,-0.0041768120322722,0.0159877685198719,10.2,0.0,26.520000000000003,0.0,2.0000000000000018,2.0000000000000018,0.0,0.0,,
5.2,6.810863259917083,0.1420264454000957,7.661531032198493,0.0012100384163275,0.0048195297129496,0.0018973324340654,10.4,0.0,27.56,0.0,2.0000000000000018,2.0000000000000018,0.0,0.0,,
5.300000000000001,6.735675760442145,0.0004785418448473,7.480258605874251,0.0069515702543691,-0.0101822068323347,0.0259238727568546,10.6,0.0,28.62,0.0,2.0000000000000018,2.0000000000000018,0.0,0.0,,
5.4,6.536148200343916,-0.1621282919181598,7.639425842150358,0.0089166269396293,0.0042411981705215,0.0112834550926428,10.8,0.0,29.700000000000003,0.0,1.999999999999993,1.999999999999993,0.0,0.0,,
5.5,6.685213791641841,-0.1145881557228747,7.477079894854402,-0.0057716171151211,0.0077511973341775,0.0035294261849786,11.0,0.0,30.800000000000004,0.0,2.0000000000000018,2.0000000000000018,0.0,0.0,,
5.6000000000000005,6.563226228050002,-0.028207876247949,7.527648929266687,-0.0046372455280397,-0.0102222039556643,0.0074368721149191,11.2,0.0,31.920000000000005,0.0,2.0000000000000018,2.0000000000000018,0.0,0.0,,
5.7,6.723795793235187,-0.0560414763056694,7.395053465282594,0.0033204993735763,-0.0164808434149732,-0.0090746377437655,11.4,0.0,33.06,0.0,2.0000000000000018,2.0000000000000018,0.0,0.0,,
5.800000000000001,6.579284174381013,-0.012017072756777,7.512345345965044,0.0157535621694955,0.0065765962320201,0.0034006147003657,11.6,0.0,34.22,0.0,2.0000000000000018,2.0000000000000018,0.0,0.0,,
5.9,6.684198376383467,-0.1303794046956713,7.46293224072649,-0.0018865863892013,0.0012271856033808,-0.0032723094355232,11.8,0.0,35.4,0.0,1.999999999999993,1.999999999999993,0.0,0.0,,
6.0,6.764952784705055,0.2499108369503866,7.449395188856815,0.0050171172209894,0.0049014399171111,0.0009877952811416,12.0,0.0,36.6,0.0,2.0000000000000018,2.0000000000000018,0.0,0.0,37.56784908626414,-7.653120978631192
6.1000000000000005,6.720664679840441,0.0218888601172692,7.480360625907668,-0.0067300978385546,-0.0017548982574105,0.0099799829124544,12.2,0.0,37.82,0.0,2.0000000000000018,2.0000000000000018,0.0,0.0,,
6.2,6.904722348738135,0.163890623912781,7.788686579752077,-0.0066734756288804,0.0067232063672067,0.0068334200573835,12.4,0.0,39.06,0.0,2.0000000000000018,2.0000000000000018,0.0,0.0,,
6.300000000000001,7.015521247551529,-0.1012447428032727,7.339750934798227,-0.0049939264544402,-0.023238957243098,-0.0002575502168076,12.6,0.0,40.32,0.0,2.0000000000000018,2.0000000000000018,0.0,0.0,,
6.4,6.573180908335816,0.0425590679714311,7.516972607491922,0.0197617083921588,0.0075042383818605,-0.000769036556624,12.8,0.0,41.6,0.0,1.999999999999993,1.999999999999993,0.0,0.0,,
6.5,6.552288606866625,0.0937878757259758,7.267674230072247,0.0193145876585435,0.0097944012072128,0.0003082434789529,13.0,0.0,42.9,0.0,2.0000000000000018,2.0000000000000018,0.0,0.0,,
6.6000000000000005,6.430080628205247,0.2230808561248119,7.44852823433745,0.0133781631197346,-0.0179442765879436,-0.0009937502295377,13.2,0.0,44.22,0.0,2.0000000000000018,2.0000000000000018,0.0,0.0,,
6.7,6.687837362526606,0.0270470890647113,7.398199390403457,0.0072284993234749,-0.0126762042938259,0.003576205149787,13.4,0.0,45.56,0.0,2.0000000000000018,2.0000000000000018,0.0,0.0,,
6.800000000000001,6.705095152325663,0.0971658251088123,7.572451442838677,-0.0102464209183786,-0.0173411417073562,0.017776768218985,13.6,0.0,46.92,0.0,2.0000000000000018,2.0000000000000018,0.0,0.0,,
6.9,6.736897909365809,-0.092272980483483,7.698382007453726,0.0021567463429285,0.0097929718406382,0.005675184814101,13.8,0.0,48.3,0.0,1.999999999999993,1.999999999999993,0.0,0.0,,
7.0,6.996162996301177,0.2833011263664807,7.428364588853483,0.0107157095095435,0.0044537594958514,0.0186863155753234,14.0,0.0,49.7,0.0,2.0000000000000018,2.0000000000000018,0.0,0.0,42.80032866994787,-2.2491501169638908
7.1000000000000005,6.542312288481863,0.1229077189997659,7.624472884152781,-0.0165873948642311,-0.0138325851266577,-0.015392321777601,14.2,0.0,51.120000000000005,0.0,2.0000000000000018,2.0000000000000018,0.0,0.0,,
7.2,6.646639782402195,0.1276313383693943,7.691062768939748,0.0017409478041977,0.0142861554557129,-0.0088010145821489,14.4,0.0,52.56,0.0,2.0000000000000018,2.0000000000000018,0.0,0.0,,
7.300000000000001,6.431543441665605,0.0116678451655071,7.523319028466239,0.000673052519059,-0.0226744210003987,0.0041087996048721,14.6,0.0,54.02,0.0,2.0000000000000018,2.0000000000000018,0.0,0.0,,
7.4,6.491380382493142,0.1204508823245057,7.520698948039875,-0.0083987978632735,-0.0071386691733669,-0.0055921352188895,14.8,0.0,55.5,0.0,1.999999999999993,1.999999999999993,0.0,0.0,,
7.5,6.677648942977903,0.1632713480751857,7.317850304175012,0.0060404651551784,-0.0073025761837244,-0.0029287283226234,15.0,0.0,57.0,0.0,2.0000000000000018,2.0000000000000018,0.0,0.0,,
7.6,6.670996253575695,-0.1352863483629061,7.382661815323266,-0.0109787789258884,0.0176472513291638,0.0053526355197172,15.2,0.0,58.52,0.0,2.0000000000000018,2.0000000000000018,0.0,0.0,,
7.7,6.582091981369991,0.0520969866101333,7.448860003671719,-0.0012096959953322,0.0041416670004342,0.012575077100473,15.4,0.0,60.06,0.0,2.0000000000000018,2.0000000000000018,0.0,0.0,,
7.800000000000001,6.607475635427299,-0.066372736096702,7.424451456552597,-0.0220192116473558,-0.0171519106219855,0.0186687426744452,15.6,0.0,61.620000000000005,0.0,2.0000000000000018,2.0000000000000018,0.0,0.0,,
7.9,6.933795964594063,-0.0173554059334567,7.552192755583713,0.0041125015454353,0.0287888080845523,0.0161957491143457,15.8,0.0,63.2,0.0,1.999999999999993,1.999999999999993,0.0,0.0,,
8.0,6.667863168846756,-0.1233310660900638,7.224742263086711,0.0030346363586722,-0.009563507452843,-0.0092225370959767,16.0,0.0,64.8,0.0,1.999999999999993,1.999999999999993,0.0,0.0,60.7486755186623,1.2569893303810955
8.1,6.590064874932508,-0.1422322005421592,7.718780456386224,0.0098163975694945,-0.0020797264131661,0.0197994413889002,16.2,0.0,66.42,0.0,2.0000000000000107,2.0000000000000107,0.0,0.0,,
8.200000000000001,6.69865605371603,-0.1091926301992395,7.694177822715788,0.0063891004368465,-0.0123724615432645,0.0030966132191639,16.400000000000002,0.0,68.06,0.0,2.0000000000000107,2.0000000000000107,0.0,0.0,,
8.3,6.555708069561157,-0.1874199596446504,7.604635843255094,0.0200941664047013,-0.0159856757381914,0.0106296923669057,16.6,0.0,69.72,0.0,1.999999999999993,1.999999999999993,0.0,0.0,,
8.4,6.589454422200596,-0.0530688075647044,7.376850122489517,-0.0076399076967981,-0.0015147837205517,-0.0033095011641103,16.8,0.0,71.4,0.0,1.999999999999993,1.999999999999993,0.0,0.0,,
8.5,6.727619331435847,0.0124642835826294,7.429867004095386,-0.0080756366204159,-0.0077677133056833,0.0125539122582575,17.0,0.0,73.10000000000001,0.0,1.999999999999993,1.999999999999993,0.0,0.0,,
8.6,6.762188385712544,-0.1266332867197826,7.480609056939723,0.0085138712337178,-0.0186940528112137,0.0104336019237993,17.2,0.0,74.82000000000001,0.0,2.0000000000000107,2.0000000000000107,0.0,0.0,,
8.700000000000001,6.587657243727009,0.1055898002889739,7.351220337643961,-0.0170488210066451,-0.0182754243788316,0.0054808494666138,17.400000000000002,0.0,76.56,0.0,2.0000000000000107,2.0000000000000107,0.0,0.0,,
8.8,6.7260091828270925,-0.1156474937656612,7.561498079941954,-0.0156152006226895,-0.0026607979864731,-0.0071101619976245,17.6,0.0,78.32000000000001,0.0,1.999999999999993,1.999999999999993,0.0,0.0,,
8.9,6.589275391398547,0.0271098006974621,7.336647206332755,-0.0028455554422982,0.0080629280921444,-0.0007689186952314,17.8,0.0,80.10000000000001,0.0,1.999999999999993,1.999999999999993,0.0,0.0,,
9.0,6.812404624378642,-0.1494560281986427,7.54517983781264,0.015415686206579,-0.0267164450012728,-0.0029689525547047,18.0,0.0,81.9,0.0,1.999999999999993,1.999999999999993,0.0,0.0,78.26790369791516,-5.649214805341166
9.1,6.773611626645968,-0.0104568079064489,7.521381092131035,-0.0050398518671582,-0.001134102125271,0.0034432276460792,18.2,0.0,83.72,0.0,2.0000000000000107,2.0000000000000107,0.0,0.0,,
9.2,6.862218116817858,0.0581631264951819,7.516349610436619,-0.0031187696612246,-0.0068760622407249,0.0006744181218037,18.4,0.0,85.56,0.0,2.0000000000000107,2.0000000000000107,0.0,0.0,,
9.3,6.746218628925615,-0.0431476721230394,7.50917543965981,0.0217540079864543,0.0067112470343169,0.0017397646783215,18.6,0.0,87.42,0.0,1.999999999999993,1.999999999999993,0.0,0.0,,
9.4,6.867232895893462,-0.0412113059532327,7.1599905308486695,-0.009080863109174,-0.0207079192102585,0.0014848651595869,18.8,0.0,89.3,0.0,1.999999999999993,1.999999999999993,0.0,0.0,,
9.5,6.689813564447319,0.2714655968412924,7.514748317189963,-0.0011910052880886,0.0062940558118348,-0.0171113530900788,19.0,0.0,91.2,0.0,2.0000000000000107,2.0000000000000107,0.0,0.0,,
9.6,6.722392991285171,0.135629779083045,7.243921274258363,0.0124375404320692,0.0013849640749441,0.0008471208609919,19.200000000000003,0.0,93.12,0.0,2.0000000000000107,2.0000000000000107,0.0,0.0,,
9.7,6.781968087484813,0.3606039286706594,7.492989149384122,0.0034822058630033,-0.0065936089954024,-0.0034984436946479,19.4,0.0,95.06,0.0,1.999999999999993,1.999999999999993,0.0,0.0,,
9.8,6.811601180050507,-0.10841257388633,7.476444146708257,-0.0037765744676511,0.0027897982574639,0.0083366210528694,19.6,0.0,97.02,0.0,1.999999999999993,1.999999999999993,0.0,0.0,,
9.9,6.842681799207556,-0.056502459828212,7.425227970831342,-0.008787637157823,-0.0064429326007611,0.0087730049304485,19.8,0.0,99.0,0.0,1.999999999999993,1.999999999999993,0.0,0.0,,
10.0,6.800599100065689,-0.1183247986266438,7.596150099141188,0.0145563785880495,0.002134349032237,0.0237679581255806,20.0,0.0,101.0,0.0,2.0000000000000107,2.0000000000000107,0.0,0.0,106.86259507568622,-0.9031052019461426
10.1,6.570982427703351,-0.1666982054967125,7.1989011737896975,0.0159604431148918,0.0045436565635405,0.0044441532908954,20.200000000000003,0.0,103.02,0.0,2.0000000000000107,2.0000000000000107,0.0,0.0,,
10.2,6.729046101516843,-0.1488233570947564,7.832572008067872,0.0022922118197522,-0.000906052053951,0.0122576662389869,20.4,0.0,105.06,0.0,1.999999999999993,1.999999999999993,0.0,0.0,,
10.3,6.7592021923293775,0.0535826036418697,7.347138042808551,0.0057146835713599,0.0168202449647503,0.0184542004615497,20.6,0.0,107.12,0.0,1.999999999999993,1.999999999999993,0.0,0.0,,
10.4,6.92602880156478,-0.0566823514646777,7.317268488086561,-0.0002578692009964,-0.001442750877113,0.0159419151847094,20.8,0.0,109.2,0.0,1.999999999999993,1.999999999999993,0.0,0.0,,
10.5,6.433181113111663,0.249432547919092,7.442008026338491,-0.0032688106994742,-0.0121210437526016,-0.0115485667186576,21.0,0.0,111.3,0.0,2.0000000000000107,2.0000000000000107,0.0,0.0,,
10.6,6.810526395163174,0.0309976950782605,7.272215076164181,-0.0119507877206361,-0.0053578469929012,0.0216902152528939,21.200000000000003,0.0,113.42,0.0,2.0000000000000107,2.0000000000000107,0.0,0.0,,
10.7,6.64811210486433,-0.2054714429677159,7.428847751512456,-0.0017272356974767,-0.0289688664294157,0.0044570513348218,21.4,0.0,115.56,0.0,1.999999999999993,1.999999999999993,0.0,0.0,,
10.8,6.652410628037569,0.1244309547220127,7.74305262536715,0.0122656502954775,-0.0046888869055483,-0.0060652590874167,21.6,0.0,117.72,0.0,1.999999999999993,1.999999999999993,0.0,0.0,,
10.9,7.07305477805635,0.0288827651021732,7.467798604912289,0.0007587491288999,-1.9152392321450645e-05,0.0035563958807605,21.8,0.0,119.9,0.0,1.999999999999993,1.999999999999993,0.0,0.0,,
11.0,6.601001506536851,-0.0620288411860588,7.460796220592939,-0.0044342477113376,-0.0091284578267716,0.0060643022769189,22.0,0.0,122.1,0.0,2.0000000000000107,2.0000000000000107,0.0,0.0,122.37011281875169,-5.698992744853827
11.1,6.648804224955758,0.2455989482874032,7.068063739866387,0.0119150685192246,0.0104608519249762,-0.0157339023240814,22.200000000000003,0.0,124.32,0.0,2.0000000000000107,2.0000000000000107,0.0,0.0,,
11.2,6.635647668456818,-0.0357161298993687,7.254582456917674,-0.0067781668759087,-0.0131057584546582,0.0225227044342362,22.4,0.0,126.56,0.0,1.999999999999993,1.999999999999993,0.0,0.0,,
11.3,6.827402566540989,0.2107332642491238,7.573960020731833,-0.0102905177121722,-0.0072452026627977,0.0098937456122791,22.6,0.0,128.82,0.0,1.999999999999993,1.999999999999993,0.0,0.0,,
11.4,6.503731636235079,0.1269497645258582,7.429660401401628,-0.0027482080754959,0.0051095996820349,0.0094426331148603,22.8,0.0,131.1,0.0,1.999999999999993,1.999999999999993,0.0,0.0,,
11.5,6.632905882696025,0.1938994705046371,7.303549711985354,0.0071593560694426,0.0039310125796838,0.00190453560686,23.0,0.0,133.4,0.0,2.0000000000000107,2.0000000000000107,0.0,0.0,,
11.6,6.735970760905205,-0.1676670364577954,7.604313264006374,-0.0008490213644298,-0.0072272302051903,0.0154900922583688,23.200000000000003,0.0,135.72,0.0,2.0000000000000107,2.0000000000000107,0.0,0.0,,
11.7,6.581399253987457,-0.1912691944545339,7.232214835096762,0.0070600995134563,-0.0148042935249628,0.0225479418198436,23.4,0.0,138.06,0.0,1.999999999999993,1.999999999999993,0.0,0.0,,
11.8,6.374761396386313,0.2744684552435057,7.49736183120574,3.286888129607607e-05,-0.0074491908680894,0.0089913611435207,23.6,0.0,140.42000000000002,0.0,1.999999999999993,1.999999999999993,0.0,0.0,,
11.9,6.681405602205143,0.1854952823024782,7.482843358424653,0.0025030176146187,-0.0056361221221385,0.0044305437627893,23.8,0.0,142.8,0.0,1.999999999999993,1.999999999999993,0.0,0.0,,
12.0,6.733221072902696,-0.2365252588984938,7.263481397809482,0.0084326409402271,-0.0002913456187205,0.0031601666364732,24.0,0.0,145.20000000000002,0.0,2.0000000000000107,2.0000000000000107,0.0,0.0,143.02246910189928,0.44369035883946434
12.1,6.689815897528695,0.0721372558042506,7.384745259078935,-0.0067830472540231,-4.154744902318437e-05,-0.0047837277761503,24.200000000000003,0.0,147.62,0.0,2.0000000000000107,2.0000000000000107,0.0,0.0,,
12.2,6.748288720926041,-0.235387540635676,7.620082556724195,0.0057259748241304,0.0005602973431387,0.0148269098394551,24.4,0.0,150.06,0.0,1.999999999999993,1.999999999999993,0.0,0.0,,
12.3,6.936871974238257,0.1721555097527195,7.189578076425601,-0.011795769667357,-0.0082481857769567,0.0052609105021083,24.6,0.0,152.52,0.0,1.999999999999993,1.999999999999993,0.0,0.0,,
12.4,6.764699660639239,-0.0888615719730198,7.493724225796909,-0.0065538293235332,-0.0081151780299194,-0.0090666109684822,24.8,0.0,155.0,0.0,1.999999999999993,1.999999999999993,0.0,0.0,,
12.5,6.548565820652251,-0.18275269084245,7.319328223178739,0.0115364179660783,-0.0114939888883194,0.0313238206483739,25.0,0.0,157.5,0.0,2.0000000000000107,2.0000000000000107,0.0,0.0,,
12.6,6.76104849270102,0.047725418554231,7.336955544098157,0.0080030987940899,-0.0077563782623777,0.0062200981464536,25.200000000000003,0.0,160.02,0.0,2.0000000000000107,2.0000000000000107,0.0,0.0,,
12.7,7.07106348830919,0.0055910150413025,7.638100210068199,-0.0060317642512588,-0.0023498849049696,0.0227080063563551,25.4,0.0,162.56,0.0,1.999999999999993,1.999999999999993,0.0,0.0,,
12.8,6.593005748900706,0.2918672836995393,7.571872001443669,-0.0046246677589426,0.0043240773905552,0.0147255444962672,25.6,0.0,165.12,0.0,1.999999999999993,1.999999999999993,0.0,0.0,,
12.9,6.7803223019014505,-0.2155337079835684,7.356638634751618,-0.001475186355515,-0.0027443342910004,0.0112067209755067,25.8,0.0,167.70000000000002,0.0,1.999999999999993,1.999999999999993,0.0,0.0,,
13.0,6.713705957708875,-0.1803016538065152,7.522738888776233,0.0071058574528382,0.0035979044793103,0.0158078072555462,26.0,0.0,170.3,0.0,2.0000000000000107,2.0000000000000107,0.0,0.0,165.6960256903108,1.5027920733826878
13.1,6.812139130751223,0.0888770118842655,7.455184354406541,-0.0156096093351599,0.0022961821913258,0.0070768768716311,26.200000000000003,0.0,172.92000000000002,0.0,2.0000000000000107,2.0000000000000107,0.0,0.0,,
13.2,6.727787633148177,-0.1715122863730464,7.303550730064108,0.011531528533329,-0.0023955515385665,0.0118150069737262,26.4,0.0,175.56,0.0,1.999999999999993,1.999999999999993,0.0,0.0,,
13.3,6.69129856398844,0.0244634209243617,7.606451782021748,-0.0041604472821737,-0.0010387922305901,0.0003772471129495,26.6,0.0,178.22,0.0,1.999999999999993,1.999999999999993,0.0,0.0,,
13.4,6.621876373454024,-0.0263758185202959,7.499029276870405,-0.0037874862166347,0.0105575612557352,-0.003946073022195,26.8,0.0,180.9,0.0,1.999999999999993,1.999999999999993,0.0,0.0,,
13.5,6.659020060944683,-0.0459596587411262,7.682755893778399,0.0029655477651157,0.0083184453946863,-0.0098556037303697,27.0,0.0,183.6,0.0,2.0000000000000107,2.0000000000000107,0.0,0.0,,
13.6,6.727108347449275,0.1534446193435155,7.478051809516653,0.0116548037506535,-0.0071728845010037,0.0190934744018557,27.200000000000003,0.0,186.32,0.0,2.0000000000000107,2.0000000000000107,0.0,0.0,,
13.7,7.031885526111759,-0.0344257840659488,7.398883832915232,0.015533844771177,0.0137957214573071,-0.0002286002715326,27.4,0.0,189.06,0.0,1.999999999999993,1.999999999999993,0.0,0.0,,
13.8,6.624022785004492,-0.022267691329076,7.264041634470206,-0.0081865194648419,-0.0120414076675206,-0.0026779756510412,27.6,0.0,191.82,0.0,1.999999999999993,1.999999999999993,0.0,0.0,,
13.9,6.681848074460853,0.0551322098804781,7.6982842850474595,-0.0089835404073879,0.0078432239847658,0.0028601115577449,27.8,0.0,194.6,0.0,1.999999999999993,1.999999999999993,0.0,0.0,,
14.0,6.679631251121021,0.1212229238249905,7.297300907890994,0.0048240974618405,-0.0003354779178694,0.0099245126400814,28.0,0.0,197.4,0.0,2.0000000000000107,2.0000000000000107,0.0,0.0,194.9974452403248,-1.1667749991731071
14.1,6.730426104155059,0.3882950209866341,7.3700482134876415,-0.0043099695500181,-0.0082314052642476,-0.0005547711916025,28.200000000000003,0.0,200.22,0.0,2.0000000000000107,2.0000000000000107,0.0,0.0,,
14.2,6.591442738472893,0.1983524796661327,7.678784848323826,-0.0047074629374947,-0.0103235557310422,0.009714155563864,28.4,0.0,203.06,0.0,1.999999999999993,1.999999999999993,0.0,0.0,,
14.3,6.604217350926725,0.1149397726633266,7.496147664253042,-0.0141574411499723,0.0134750520133006,0.0229587767309552,28.6,0.0,205.92,0.0,1.999999999999993,1.999999999999993,0.0,0.0,,
14.4,6.595132503996212,-0.0381552339903976,7.508589019734083,0.0043445678998702,0.0045854427267283,0.0251020453876635,28.8,0.0,208.8,0.0,1.999999999999993,1.999999999999993,0.0,0.0,,
14.5,6.660508723444779,-0.099744586680768,7.25881132692316,-0.0063093003994191,-0.0023312697287379,0.0229455786351778,29.0,0.0,211.7,0.0,2.0000000000000107,2.0000000000000107,0.0,0.0,,
14.6,6.609409112713461,0.0535681927458347,7.463245776714426,0.0128839327344808,0.0232693242587362,-0.0003086877292032,29.200000000000003,0.0,214.62,0.0,2.0000000000000107,2.0000000000000107,0.0,0.0,,
14.7,6.613634891191137,0.1766241315603607,7.567992934569294,0.0194670732573603,0.0038392818532596,0.0014070790921294,29.4,0.0,217.56,0.0,1.999999999999993,1.999999999999993,0.0,0.0,,
14.8,6.775649032172717,0.1863055370874361,7.588781538304953,0.0060727403110729,0.0086667468958915,0.0166929559044567,29.6,0.0,220.52,0.0,1.999999999999993,1.999999999999993,0.0,0.0,,
14.9,6.8943746562245,0.1173064831384464,7.440641499077819,0.0024671368643332,0.0100650896650835,-0.0031693567098723,29.8,0.0,223.5,0.0,1.999999999999993,1.999999999999993,0.0,0.0,,
15.0,6.742351803899822,-0.0390008218491041,7.470020934565562,0.0137845186260729,-8.900931980096666e-05,0.0054643654815614,30.0,0.0,226.5,0.0,2.0000000000000107,2.0000000000000107,0.0,0.0,224.0931735510824,7.409112738035751
15.1,6.483072386421899,0.1319380349040831,7.562531838296499,0.0226325472330546,-0.00507778234953,0.0071915032766393,30.200000000000003,0.0,229.52,0.0,2.0000000000000107,2.0000000000000107,0.0,0.0,,
15.2,6.724458360125484,0.2566179919645212,7.451414881267305,0.0037902152577033,0.0040789650971653,0.0068660912315635,30.4,0.0,232.56,0.0,1.999999999999993,1.999999999999993,0.0,0.0,,
15.3,6.620085765386292,0.0491134989347461,7.6267539736043135,-0.0092651529941106,-0.0006703032585312,-0.0020012081493917,30.6,0.0,235.62,0.0,1.999999999999993,1.999999999999993,0.0,0.0,,
15.4,6.866307801907597,-0.2084780357175662,7.38187093403461,0.0047721187506452,0.0136552402923434,0.0043424973892701,30.8,0.0,238.7,0.0,1.999999999999993,1.999999999999993,0.0,0.0,,
15.5,6.603770878564907,0.3021735604160885,7.248507126062902,-0.0209880595662008,0.0024001445005333,-2.054224352611173e-05,31.0,0.0,241.8,0.0,2.0000000000000107,2.0000000000000107,0.0,0.0,,
15.6,6.53386588499928,0.1262534670949029,7.502279318191019,-0.0046407863073672,-0.0148030439867089,0.0137245732828014,31.200000000000003,0.0,244.92,0.0,2.0000000000000107,2.0000000000000107,0.0,0.0,,
15.7,6.78458098426267,0.0051236204330925,7.742704760532497,-0.0097008476632615,-0.0172552517092473,-0.0019190806988124,31.4,0.0,248.06,0.0,1.999999999999993,1.999999999999993,0.0,0.0,,
15.8,6.680212905115546,0.0565009173984037,7.429523802446898,0.0045205539651429,-0.0145153942419044,0.0194376460407325,31.6,0.0,251.22,0.0,1.999999999999993,1.999999999999993,0.0,0.0,,
15.9,6.674728130809985,0.1875943747382191,7.517118013082003,0.0055675321915378,0.003697672802322,0.0094770856001731,31.8,0.0,254.4,0.0,1.999999999999993,1.999999999999993,0.0,0.0,,
16.0,6.783459221549018,0.2193728795198647,7.495187386580559,0.0080900375758851,-0.0028973569428722,0.0194011721544947,32.0,0.0,257.6,0.0,2.0000000000000107,2.0000000000000107,0.0,0.0,257.5460111010483,-4.230843715823601
16.1,6.58559196225998,0.2901410649366223,7.459685518528696,-0.0133077510211804,-0.0007189558508921,-0.0018105165747488,32.2,0.0,260.82000000000005,0.0,1.999999999999993,1.999999999999993,0.0,0.0,,
16.2,6.81314733991718,-0.0778935968953586,7.398781696143131,-0.0178954073094553,-0.0065230631924907,-0.0192387932662895,32.4,0.0,264.06000000000006,0.0,1.999999999999993,1.999999999999993,0.0,0.0,,
16.3,6.449465384046043,0.1340621984216446,7.583579234922955,0.0052545756178496,-0.0116697614312921,0.0045228864385802,32.6,0.0,267.32000000000005,0.0,2.0000000000000284,2.0000000000000284,0.0,0.0,,
16.400000000000002,6.6865104267052855,-0.1537547033788814,7.69121895639042,0.0097736229057567,-0.0042096417382966,0.0052688583899453,32.800000000000004,0.0,270.6,0.0,1.999999999999993,1.999999999999993,0.0,0.0,,
16.5,6.718308228761003,-0.2862602302636435,7.428632603747258,-0.0058198424799779,-0.0120162000989491,0.0021889970711404,33.0,0.0,273.90000000000003,0.0,1.999999999999993,1.999999999999993,0.0,0.0,,
16.6,6.956703786596299,0.1161264291900514,7.380032362657928,0.0067258278135615,0.01199355436586,0.0142463368291276,33.2,0.0,277.22,0.0,1.999999999999993,1.999999999999993,0.0,0.0,,
16.7,6.6959953630568965,-0.077040516655836,7.570442708167386,0.0049348538542174,0.0069519322002773,0.0113517180168196,33.4,0.0,280.56,0.0,1.999999999999993,1.999999999999993,0.0,0.0,,
16.8,6.844483714866802,-0.0602852817340851,7.663318320970479,0.0029759960469239,0.0187526087262526,-0.0018918781808956,33.6,0.0,283.92,0.0,2.0000000000000284,2.0000000000000284,0.0,0.0,,
16.900000000000002,6.947445378043658,0.0496866175193971,7.367996510583181,-0.0038388583405432,-0.0052034730819432,0.0092416594640191,33.800000000000004,0.0,287.3,0.0,1.999999999999993,1.999999999999993,0.0,0.0,,
17.0,6.765476130774196,-0.0660550005907868,7.4620560222862,0.0224227035861186,0.0152754317010071,0.0093632366967403,34.0,0.0,290.7,0.0,1.999999999999993,1.999999999999993,0.0,0.0,293.9901796484127,-4.883374599884089
17.1,6.692751329294101,0.0380046990077391,7.5577369070349105,-0.009227925651984,-0.0045737653742334,-0.0116858407387758,34.2,0.0,294.12,0.0,1.999999999999993,1.999999999999993,0.0,0.0,,
17.2,6.746934275959663,0.1170793909554111,7.393231241780442,0.0167398676329003,-0.0142576566300234,-0.0096437488020982,34.4,0.0,297.56,0.0,1.999999999999993,1.999999999999993,0.0,0.0,,
17.3,6.720718580352898,0.1770647453918231,7.71829836484401,-0.0035888426286894,0.0087868083343129,0.0046149153049929,34.6,0.0,301.02,0.0,2.0000000000000284,2.0000000000000284,0.0,0.0,,
17.400000000000002,6.661156712577748,0.1525489906230008,7.56355764288736,-0.0147639215698424,0.0127654034972589,0.0188009135414745,34.800000000000004,0.0,304.5,0.0,1.999999999999993,1.999999999999993,0.0,0.0,,
17.5,6.593216402342441,0.0793705300156113,7.539813739067759,0.003606737658239,-0.0075030515384542,-0.0017162336793805,35.0,0.0,308.0,0.0,1.999999999999993,1.999999999999993,0.0,0.0,,
17.6,6.6832176969201535,0.1959093528889046,7.547249234314513,-0.002706143320861,0.0057169871064834,-0.0234854262063007,35.2,0.0,311.52,0.0,1.999999999999993,1.999999999999993,0.0,0.0,,
17.7,6.859365662624686,-0.2409570668167149,7.411343069914878,-0.0101966989462614,-0.014946814757209,0.0166082678737851,35.4,0.0,315.06,0.0,1.999999999999993,1.999999999999993,0.0,0.0,,
17.8,6.616895627372118,0.0719755822596073,7.458671124293453,0.0057704082722312,-0.0012317810893974,-0.0078299222418856,35.6,0.0,318.62,0.0,2.0000000000000284,2.0000000000000284,0.0,0.0,,
17.900000000000002,6.836490830485942,-0.0540634874741968,7.232221926326385,-0.0032811516096591,0.0130075979063431,0.0135022174211349,35.800000000000004,0.0,322.2,0.0,1.999999999999993,1.999999999999993,0.0,0.0,,
18.0,6.634752987407691,-0.0323886556477643,7.41746395344274,0.0217674798356084,0.0018193545223155,0.0093004164719106,36.0,0.0,325.8,0.0,1.999999999999993,1.999999999999993,0.0,0.0,326.63545438001904,-7.838680495519102
18.1,6.841593325673647,0.055818373853977,7.426852889252243,-0.0009634984908497,-0.0027160125941406,0.0046277776349015,36.2,0.0,329.42,0.0,1.999999999999993,1.999999999999993,0.0,0.0,,
18.2,6.796195239114417,0.0277918828710949,7.575605222707685,0.0001928341989141,-0.001213648096839,-0.014982006845321,36.4,0.0,333.06,0.0,1.999999999999993,1.999999999999993,0.0,0.0,,
18.3,6.824499958774274,0.0719732713846989,7.615410727604278,-0.0279625537819368,0.0188837470478072,0.0036041037184482,36.6,0.0,336.72,0.0,2.0000000000000284,2.0000000000000284,0.0,0.0,,
18.4,6.853278230079498,-0.1359858890688296,7.557625296884733,-0.0095341556317365,-0.008237689606958,0.0241403135386678,36.8,0.0,340.40000000000003,0.0,1.999999999999993,1.999999999999993,0.0,0.0,,
18.5,6.658448447454369,0.0526149309769584,7.596219370728661,0.005956818879726,-0.0004958109485642,0.0086496100246622,37.0,0.0,344.1,0.0,1.999999999999993,1.999999999999993,0.0,0.0,,
18.6,7.047563145354612,0.0113571804449621,7.495874068132593,0.0115065439600761,0.0090552593295798,0.0168703030556038,37.2,0.0,347.82000000000005,0.0,1.999999999999993,1.999999999999993,0.0,0.0,,
18.7,6.782860340873248,-0.1514507369095725,7.710723940970512,-0.0104634539301868,0.0010263546523903,-0.0025427585001935,37.4,0.0,351.56000000000006,0.0,1.999999999999993,1.999999999999993,0.0,0.0,,
18.8,6.677430055579952,0.069314361545522,7.513912793442871,0.0052192075423528,0.0141371126905864,0.0095353430151397,37.6,0.0,355.32000000000005,0.0,2.0000000000000284,2.0000000000000284,0.0,0.0,,
18.9,6.650427312275274,0.1646130752432535,7.6441297844640435,-0.0112760781513699,0.0039740006984985,0.0120117274231089,37.8,0.0,359.1,0.0,1.999999999999993,1.999999999999993,0.0,0.0,,
19.0,6.642416282064872,0.2263560219967429,7.443200873070468,0.0022557645347154,-0.0037307182428386,0.0051557904758146,38.0,0.0,362.9,0.0,1.999999999999993,1.999999999999993,0.0,0.0,357.58725580440625,0.7874449434764941
19.1,6.522609544534621,-0.1960076323891441,7.704884970609076,-0.0074696134831832,-0.011913923494563,-0.0165339011360371,38.2,0.0,366.72,0.0,2.0000000000000284,2.0000000000000284,0.0,0.0,,
19.200000000000003,6.591206545415445,-0.1784634690111247,7.712011485145803,0.0110981708934263,-0.0088815034517772,0.027524358053443,38.400000000000006,0.0,370.56,0.0,1.999999999999993,1.999999999999993,0.0,0.0,,
19.3,6.83431563061761,-0.0287247075262933,7.090798353894312,0.0239094257259074,-0.0158957246676359,-0.0114539874695689,38.6,0.0,374.42,0.0,1.999999999999993,1.999999999999993,0.0,0.0,,
19.4,6.840436372370316,0.3859628609508909,7.673350133901925,0.0066390912005235,0.0039475434166528,0.013534155587803,38.8,0.0,378.3,0.0,1.999999999999993,1.999999999999993,0.0,0.0,,
19.5,6.800890096036885,0.0621787135954063,7.481339376718129,0.0003740687210047,-0.0095396458886667,0.0021932492313322,39.0,0.0,382.2,0.0,1.999999999999993,1.999999999999993,0.0,0.0,,
19.6,6.433107285439593,0.0052490559807875,7.317420545052692,-0.0100358931721577,-0.0002010584884652,0.0189200228634459,39.2,0.0,386.12,0.0,2.0000000000000284,2.0000000000000284,0.0,0.0,,
19.700000000000003,6.824798298469218,-0.2155750905434765,7.317264990639797,0.0104077118798821,-0.011824873935383,0.0027536685000297,39.400000000000006,0.0,390.06,0.0,1.999999999999993,1.999999999999993,0.0,0.0,,
19.8,6.7695586224225535,-0.1252516682295453,7.481515537047242,-0.012340254949182,-0.0080136764395121,0.0081978193414253,39.6,0.0,394.02,0.0,1.999999999999993,1.999999999999993,0.0,0.0,,
19.9,6.44810174753912,0.0860712106940598,7.462763541286345,0.0065248995441714,0.0002391413406466,0.0186414042997384,39.8,0.0,398.0,0.0,1.999999999999993,1.999999999999993,0.0,0.0,,
20.0,5.839809079181606,-0.0444108311687879,7.984053836580197,0.0064329802903638,-0.0015113992967429,0.0054059169120388,40.0,0.0,402.0,0.0,0.9999999999999788,0.9999999999999788,0.0,0.0,404.9538663199816,0.685473124759882
20.1,4.849701246828986,-0.0794351376326422,8.25531842035539,0.0184957674318693,-0.0144386323539128,-0.001929051977959,40.0,0.0,406.0,0.0,0.0,0.0,0.0,0.0,,
20.200000000000003,4.847238910164619,0.1542386565416661,8.421466759381541,0.0134774207267373,-0.0087349062424386,0.007789941622238,40.0,0.0,410.0,0.0,0.0,0.0,0.0,0.0,,
20.3,4.829697942011036,0.3417723691660082,8.287569448270919,0.0040982071022702,0.0043377688093209,0.0091379909745149,40.0,0.0,414.0,0.0,0.0,0.0,0.0,0.0,,
20.4,4.927206851168343,0.000526895039986,8.472280931922212,-0.0004700200162848,0.007638791167949,0.0271052300159135,40.0,0.0,418.0,0.0,0.0,0.0,0.0,0.0,,
20.5,4.871376232248824,-0.1854704469368616,8.452466903872656,0.0267970933765431,-0.0100367456796973,0.0213911680544406,40.0,0.0,422.0,0.0,0.0,0.0,0.0,0.0,,
20.6,5.206655122111465,-0.0630382362561991,8.551056673003137,0.0172839662312853,-0.0057912774098748,0.0029641963989763,40.0,0.0,426.0,0.0,0.0,0.0,0.0,0.0,,
20.700000000000003,4.867747862907702,-0.13221350960393,8.368317579365444,-0.0112394026676225,-0.0016591653174077,-0.0026997323105864,40.0,0.0,430.0,0.0,0.0,0.0,0.0,0.0,,
20.8,4.990067886768611,-0.2133843469305441,8.515341245957513,0.0093352896160892,-0.0219373564257145,0.0087405656984757,40.0,0.0,434.0,0.0,0.0,0.0,0.0,0.0,,
20.9,5.139150348870993,-0.1614461528036808,8.716595069151001,0.0051901900936604,-0.009050118557584,0.0044423092234229,40.0,0.0,438.0,0.0,0.0,0.0,0.0,0.0,,
21.0,5.038749036878258,0.0314008087118617,8.5465226099923,-0.0082067359307936,-0.0003063917596392,-0.0091371449690498,40.0,0.0,442.0,0.0,0.0,0.0,0.0,0.0,441.53740687044706,-1.2044147823571552
21.1,4.938316090797694,-0.1155861462197184,8.35537971973688,0.0133609317521043,0.0089131012059426,0.0110913812090717,40.0,0.0,446.0,0.0,0.0,0.0,0.0,0.0,,
21.200000000000003,4.791153085299112,-0.0274612674542202,8.647673866122222,0.002417169136399,0.0211932953998169,0.0089331783939437,40.0,0.0,450.0,0.0,0.0,0.0,0.0,0.0,,
21.3,4.983807367473504,-0.0263674696303752,8.485740346842688,-0.0005246983638054,0.0050810867668859,0.0145670231679458,40.0,0.0,454.0,0.0,0.0,0.0,0.0,0.0,,
21.4,4.837101580923807,-0.1796849430336667,8.19027840515985,0.0060799132691254,-0.0130336660617387,-0.0165289059295248,40.0,0.0,458.0,0.0,0.0,0.0,0.0,0.0,,
21.5,5.0132867906796434,0.3939499276149186,8.464798574394361,0.0093849077445164,-0.0011817064145243,0.0040111034680885,40.0,0.0,462.0,0.0,0.0,0.0,0.0,0.0,,
21.6,5.092861472448164,-0.0235411816282976,8.50581805823613,0.0042169780619601,-0.0086809045364304,0.0149204234953652,40.0,0.0,466.0,0.0,0.0,0.0,0.0,0.0,,
21.700000000000003,4.928756036495688,-0.0933617739239267,8.546185687660905,-0.0079846798179103,-0.0017181884263087,0.0049088100335579,40.0,0.0,470.0,0.0,0.0,0.0,0.0,0.0,,
21.8,5.117884334874736,0.0912047349319929,8.461955167313574,0.0091776629920028,0.0119020754901731,0.0105781030635186,40.0,0.0,474.0,0.0,0.0,0.0,0.0,0.0,,
21.9,4.956552892976506,-0.1767754348525239,8.305942161664039,-0.0020522470435466,-0.0080951220215928,0.0031302869701455,40.0,0.0,478.0,0.0,0.0,0.0,0.0,0.0,,
22.0,4.963497488734565,0.0994539131535096,8.455134394416481,0.005865016438262,-0.0013552558518987,-0.0147546656635387,40.0,0.0,482.0,0.0,0.0,0.0,0.0,0.0,476.0859120385303,-2.8793768335788346
22.1,4.814099690927186,-0.0016131333582423,8.28425499969918,0.006999287299962,0.0133075083234369,0.0171876185169731,40.0,0.0,486.0,0.0,0.0,0.0,0.0,0.0,,
22.200000000000003,4.922983569360468,0.2436089205274927,8.488009329705662,-0.0023708597111803,-0.0081340266354093,0.0019753031351187,40.0,0.0,490.0,0.0,0.0,0.0,0.0,0.0,,
22.3,4.896773477218815,0.0455624333563231,8.489795308282824,0.0010304602015341,0.0023693816974634,0.0169064627478634,40.0,0.0,494.0,0.0,0.0,0.0,0.0,0.0,,
22.4,5.0974331203161976,-0.2027346952674855,8.082621040890052,0.0103431991123927,-0.0156687869841542,0.0027523459810731,40.0,0.0,498.0,0.0,0.0,0.0,0.0,0.0,,
22.5,4.779483046091095,-0.2502970656370029,8.546928620356063,0.0085915516030264,-0.0077651040072671,-0.0209104229214491,40.0,0.0,502.0,0.0,0.0,0.0,0.0,0.0,,
22.6,4.873063332762126,0.0787706008103819,8.243872475809226,0.0028335991977915,-0.0021530984917299,0.0107929149960108,40.0,0.0,506.0,0.0,0.0,0.0,0.0,0.0,,
22.700000000000003,4.972937055262122,-0.1259603411322333,8.645194936375018,-0.0005852957302697,-0.0022730453950993,-0.0043326795907319,40.0,0.0,510.0,0.0,0.0,0.0,0.0,0.0,,
22.8,4.888507662321272,-0.1127204071040351,8.439767302136831,0.0181170848014234,-0.0157190114293135,-0.0111356139787674,40.0,0.0,514.0,0.0,0.0,0.0,0.0,0.0,,
22.9,5.1756755491240405,-0.0113985515727799,8.365348300326358,0.0113990468739607,-0.0080561553973686,0.0232600971354693,40.0,0.0,518.0,0.0,0.0,0.0,0.0,0.0,,
23.0,5.056688880700889,-0.0531867112218553,8.78930544311517,-0.0050571492300333,0.005420953720093,0.0079929258040649,40.0,0.0,522.0,0.0,0.0,0.0,0.0,0.0,520.1574449161609,4.228488904875663
23.1,5.150261193409819,0.2542266795090279,8.47050983348521,-0.0065341787034618,0.0025997214293911,-0.001777153697521,40.0,0.0,526.0,0.0,0.0,0.0,0.0,0.0,,
23.200000000000003,5.257008087128993,0.0404802996624106,8.410910978428529,0.002846803058649,-0.0154712628952969,-0.0047161403851065,40.0,0.0,530.0,0.0,0.0,0.0,0.0,0.0,,
23.3,5.135062086191663,-0.0785341418457093,8.308672563723054,0.0063665275252728,0.0098570415466299,0.0121895331066506,40.0,0.0,534.0,0.0,0.0,0.0,0.0,0.0,,
23.4,5.104407152870872,-0.0935192632854191,8.252437611114068,0.0160133365195548,-0.0052267983884213,0.0024916698354495,40.0,0.0,538.0,0.0,0.0,0.0,0.0,0.0,,
23.5,5.154229121277358,0.103434501410099,8.534092376937586,0.0226500234490108,-0.0084351823038014,0.0142784012808123,40.0,0.0,542.0,0.0,0.0,0.0,0.0,0.0,,
23.6,4.963551968734562,0.0602888418294885,8.694979475087225,0.0060783575628962,0.0033829607904963,0.015725073373098,40.0,0.0,546.0,0.0,0.0,0.0,0.0,0.0,,
23.700000000000003,4.900257090568567,-0.1058814501008509,8.30898783202219,-0.01866356589376,0.0185620712994032,-0.0060320836572168,40.0,0.0,550.0,0.0,0.0,0.0,0.0,0.0,,
23.8,4.921811956462133,-0.021521994983338,8.51182021579671,0.0091573721253929,0.0066047348835974,-0.0008307743856893,40.0,0.0,554.0,0.0,0.0,0.0,0.0,0.0,,
23.9,4.9299317429320375,0.0623869925732449,8.428405542197813,0.0170734557601999,0.0029097495163825,0.0123487778604981,40.0,0.0,558.0,0.0,0.0,0.0,0.0,0.0,,
24.0,5.054432190300111,0.1960210786227987,8.492862444930902,-0.0119683194795584,0.0019968795175264,-0.0015135689379182,40.0,0.0,562.0,0.0,0.0,0.0,0.0,0.0,563.3744731582739,-7.052160621450936
24.1,4.875707497737536,0.107954602813264,8.651451671840391,0.0012127157673606,0.0010883301259896,0.0220221494463523,40.0,0.0,566.0,0.0,0.0,0.0,0.0,0.0,,
24.200000000000003,4.991112976923285,0.4102524671270592,8.550535657970077,-0.0166076275915581,0.0055334162110453,0.0088115838488277,40.0,0.0,570.0,0.0,0.0,0.0,0.0,0.0,,
24.3,5.148462913112411,0.1209772026904937,8.44494081352778,-0.0112429823628936,-0.0040902325728602,-0.003505204542093,40.0,0.0,574.0,0.0,0.0,0.0,0.0,0.0,,
24.4,4.867921482529291,0.1082867606630914,8.716194886778055,0.0049467152982298,-0.0139588306203518,0.0094460266822014,40.0,0.0,578.0,0.0,0.0,0.0,0.0,0.0,,
24.5,5.134494722996847,-0.0714674356479073,8.445606636124408,0.0011468819472919,-0.0098489831308224,0.0114828043384385,40.0,0.0,582.0,0.0,0.0,0.0,0.0,0.0,,
24.6,4.936857777708832,0.0829298665860541,8.33258538445503,-0.0033745830032341,0.0052238135782777,0.0012716684790823,40.0,0.0,586.0,0.0,0.0,0.0,0.0,0.0,,
24.700000000000003,5.21404457768501,-0.0399454278421903,8.499411919988129,0.0103259083187308,-0.0161836573293303,-0.0126080881198077,40.0,0.0,590.0,0.0,0.0,0.0,0.0,0.0,,
24.8,4.726151552814485,0.2093876155140773,8.382930489241478,0.0265819928566825,-0.0076424759865738,0.0068455130319703,40.0,0.0,594.0,0.0,0.0,0.0,0.0,0.0,,
24.9,5.18631649288518,0.3209139332238684,8.774934747620804,0.0130836623059314,0.0082406252581146,0.0109252694920118,40.0,0.0,598.0,0.0,0.0,0.0,0.0,0.0,,
25.0,5.071754161424995,-0.06267785744928,8.342979378611998,0.0009662554258904,-0.0037018462252492,0.0004677195067272,40.0,0.0,602.0,0.0,0.0,0.0,0.0,0.0,603.2963358775792,-1.5403291216652661
25.1,5.059458117118506,0.1632957812855766,8.478970244069123,0.0157753008105526,-0.013416891141335,0.0030634054072028,40.0,0.0,606.0,0.0,0.0,0.0,0.0,0.0,,
25.200000000000003,4.847476651909578,-0.2599804925609589,8.453307108248941,-0.0002174750838328,0.0131344974324213,0.0113081168455477,40.0,0.0,610.0,0.0,0.0,0.0,0.0,0.0,,
25.3,4.801371976350619,0.2981138849501282,8.648864265454147,0.0068209770346861,-0.0042648409884983,-0.0045943923672347,40.0,0.0,614.0,0.0,0.0,0.0,0.0,0.0,,
25.4,4.899168983589341,0.1833122929556279,8.748397157015537,0.0164324352827218,-0.0068884942178627,-0.0061961743328901,40.0,0.0,618.0,0.0,0.0,0.0,0.0,0.0,,
25.5,4.97613293703668,-0.2452659048344277,8.514184368253062,-0.0004760258629866,-0.0066603650186824,-0.0109470306726679,40.0,0.0,622.0,0.0,0.0,0.0,0.0,0.0,,
25.6,5.032040015985457,-0.0599051259492867,8.290221685768802,-0.0277226221328164,-0.0022751490505063,0.0227225159666974,40.0,0.0,626.0,0.0,0.0,0.0,0.0,0.0,,
25.700000000000003,5.20418888218218,-0.0485644384879407,8.375377402071077,0.0056877425607502,-0.0119838543918829,0.0080179189981946,40.0,0.0,630.0,0.0,0.0,0.0,0.0,0.0,,
25.8,5.069912041757703,0.2040399835826461,8.450686099653351,-0.0010367375017696,-0.0107798258675656,-0.0032688035403986,40.0,0.0,634.0,0.0,0.0,0.0,0.0,0.0,,
25.9,4.921028166214771,0.0751048260224267,8.602746905060332,-0.0070317895068034,0.0129268856895952,0.0022887639895743,40.0,0.0,638.0,0.0,0.0,0.0,0.0,0.0,,
26.0,4.951794905847734,-0.0920817518721735,8.102073172084404,0.0098404539636104,0.0053684389709243,0.0021867244288178,40.0,0.0,642.0,0.0,0.0,0.0,0.0,0.0,639.2923119987762,2.4467051553634716
26.1,4.96504860758373,0.0973908826556149,8.231327332592365,-0.0042905267734629,0.0059426467962182,-0.0075428942316924,40.0,0.0,646.0,0.0,0.0,0.0,0.0,0.0,,
26.200000000000003,4.999033689824993,-0.1834872706935107,8.535673708490375,0.0006435851770251,-0.018151318159055,0.0166473935445717,40.0,0.0,650.0,0.0,0.0,0.0,0.0,0.0,,
26.3,4.844811263480292,-0.1015378655521571,8.495794590709986,0.0124863734942871,-0.0121582181897839,0.0056167984984797,40.0,0.0,654.0,0.0,0.0,0.0,0.0,0.0,,
26.4,5.019322475049585,0.1239658410894716,8.49217544441693,-0.0026702783908332,-0.0102759022064871,0.0058614388304637,40.0,0.0,658.0,0.0,0.0,0.0,0.0,0.0,,
26.5,4.794179148202158,-0.4182025725241911,8.531193181748995,0.0100393484108619,-0.0256293243554183,-0.0050973070470993,40.0,0.0,662.0,0.0,0.0,0.0,0.0,0.0,,
26.6,5.047873139150779,0.3286243204567548,8.468828267276656,-0.0062800294122913,-0.0038289644110484,0.0187487641914818,40.0,0.0,666.0,0.0,0.0,0.0,0.0,0.0,,
26.700000000000003,4.858105373131319,-0.099878800997538,8.39329768279804,-0.0085332860825871,-0.000773296840052,0.0212467845846956,40.0,0.0,670.0,0.0,0.0,0.0,0.0,0.0,,
26.8,5.003461890967404,-0.0178530253189431,8.421937520788013,-0.0146319080869665,0.0068310977714715,0.0042216280298719,40.0,0.0,674.0,0.0,0.0,0.0,0.0,0.0,,
26.9,4.927928012961405,0.4989661351767291,8.510522147380199,-0.0065179105009518,-0.0062635759620554,0.0164844570919675,40.0,0.0,678.0,0.0,0.0,0.0,0.0,0.0,,
27.0,4.971990561580664,-0.195741696747605,8.603593551311626,-0.0056814408553899,0.0167329777621754,0.0158004806571464,40.0,0.0,682.0,0.0,0.0,0.0,0.0,0.0,686.1239980899838,3.7251204764647943
27.1,4.887901715651187,0.2121524542602669,8.475887537704455,0.0095277367512221,0.0028473281729447,-0.0034635665499087,40.0,0.0,686.0,0.0,0.0,0.0,0.0,0.0,,
27.200000000000003,4.85846752515238,0.1744941226371741,8.415492911309364,-0.0030364846324199,-0.0115512257934935,0.0092359906559346,40.0,0.0,690.0,0.0,0.0,0.0,0.0,0.0,,
27.3,5.264378737886471,-0.1401299371381409,8.46934212962626,0.0151222055541542,-0.0027964139124571,0.0095237179624973,40.0,0.0,694.0,0.0,0.0,0.0,0.0,0.0,,
27.4,4.795640970777967,0.0842460645811472,8.437637571374664,0.0108572999567986,0.0098738605156475,0.0308956364201861,40.0,0.0,698.0,0.0,0.0,0.0,0.0,0.0,,
27.5,5.041944975982036,0.0688694474873249,8.494866856361945,-0.0025316629281068,0.0013848384346169,0.0020459858986097,40.0,0.0,702.0,0.0,0.0,0.0,0.0,0.0,,
27.6,4.980269146440441,0.2176396303411939,8.3147278263334,0.0123987856112904,0.0111711506733986,0.0038193147300892,40.0,0.0,706.0,0.0,0.0,0.0,0.0,0.0,,
27.700000000000003,4.63672176514871,-0.0711732980641648,8.660258393109512,0.0007713193770111,-0.0119930223229491,-4.7749212282174186e-05,40.0,0.0,710.0,0.0,0.0,0.0,0.0,0.0,,
27.8,5.081093003975682,0.1020100352302069,8.429869396249892,-0.0026682441181468,-0.0059175814904382,-0.004224101844985,40.0,0.0,714.0,0.0,0.0,0.0,0.0,0.0,,
27.9,5.197306353420416,-0.0283480703817009,8.64828298924917,0.0162131605192245,0.0079831089814796,0.0006837968728195,40.0,0.0,718.0,0.0,0.0,0.0,0.0,0.0,,
28.0,5.015559513550491,0.0163706590413625,8.330153932015826,0.004243592817216,-0.013790397911598,0.0168767938846156,40.0,0.0,722.0,0.0,0.0,0.0,0.0,0.0,718.6431299071095,-1.2368495034048583
28.1,4.88530740540524,0.0501739483809259,8.508202391857267,-0.0015890497370407,0.0038669380147527,0.0002509634337747,40.0,0.0,726.0,0.0,0.0,0.0,0.0,0.0,,
28.200000000000003,5.085694594618586,-0.1818969520370122,8.484666148057308,0.0203892899905828,-0.0120033132460557,-0.0017774497052485,40.0,0.0,730.0,0.0,0.0,0.0,0.0,0.0,,
28.3,5.032086177448837,0.0469372672909396,8.518303726016379,0.0058918713014766,0.0043472146856176,0.0160969984195622,40.0,0.0,734.0,0.0,0.0,0.0,0.0,0.0,,
28.4,5.016472798539276,-0.0161886481927813,8.566595266305756,0.0199988193489521,-0.0033263374638257,-0.0047452930467064,40.0,0.0,738.0,0.0,0.0,0.0,0.0,0.0,,
28.5,5.121062100393045,0.0019428254069602,8.13980877922324,0.0094742167715042,-0.0073532818595392,0.0040946671769583,40.0,0.0,742.0,0.0,0.0,0.0,0.0,0.0,,
28.6,5.004797049585352,0.0485749519668599,8.5721269836962,-0.0033548637056984,0.0031310579817608,0.0024045332241608,40.0,0.0,746.0,0.0,0.0,0.0,0.0,0.0,,
28.700000000000003,5.065821572133125,0.112305122601958,8.325393405818655,0.0118598211617503,-0.0073596344511404,0.0130805779828114,40.0,0.0,750.0,0.0,0.0,0.0,0.0,0.0,,
28.8,5.0100930970102,0.2957275515192684,8.432189313769568,-0.0024931679611819,-0.0021941960588773,0.0019682021716572,40.0,0.0,754.0,0.0,0.0,0.0,0.0,0.0,,
28.9,5.074991285291307,-0.2224465912654881,8.307656848253393,-0.0096780292157919,0.0075030759197357,0.0221061337258192,40.0,0.0,758.0,0.0,0.0,0.0,0.0,0.0,,
29.0,4.939332617219378,-0.0053232584785015,8.476217035592322,0.0126187830260819,-0.0112735313419057,0.0073836898273478,40.0,0.0,762.0,0.0,0.0,0.0,0.0,0.0,763.3250537256142,3.9021805084894368
29.1,5.101279644467364,0.0951641254909767,8.494146453615157,0.0110104609256714,-0.0290323229299923,0.011778753195309,40.0,0.0,766.0,0.0,0.0,0.0,0.0,0.0,,
29.200000000000003,4.8568886475308855,-0.2545949345284685,8.542389601054092,0.0147365854516295,-0.0033744851462769,0.0145287454720293,40.0,0.0,770.0,0.0,0.0,0.0,0.0,0.0,,
29.3,5.196841738698296,0.2172371680376071,8.711703890531053,0.0084212749107189,-0.001245663610984,-0.0110196581189716,40.0,0.0,774.0,0.0,0.0,0.0,0.0,0.0,,
29.4,4.918090626780507,-0.1064869892974287,8.791350618750018,-0.0007588581243233,-0.0007679519321551,0.0105148537604046,40.0,0.0,778.0,0.0,0.0,0.0,0.0,0.0,,
29.5,4.961540366955867,0.2742576560646129,8.372311806865177,0.0029460745523724,-0.0094247058569804,-0.008200225112207,40.0,0.0,782.0,0.0,0.0,0.0,0.0,0.0,,
29.6,4.863234636364206,0.0144444804427381,8.401313877447755,-0.0059242097987385,-0.0160631746367183,0.004168944273713,40.0,0.0,786.0,0.0,0.0,0.0,0.0,0.0,,
29.700000000000003,4.7292919438953485,0.1340083945534403,8.47807517406552,-0.0135755149946493,-0.0050920907704986,-0.0025215640559058,40.0,0.0,790.0,0.0,0.0,0.0,0.0,0.0,,
29.8,5.002876176562876,0.2210675669034716,8.184433340678483,0.0021502607914741,-0.0036013279556664,0.0117134007645046,40.0,0.0,794.0,0.0,0.0,0.0,0.0,0.0,,
29.9,4.986979494235652,-0.0927953997608228,8.417851120775353,-0.0069602585680348,0.0087600713859859,0.0052131164867194,40.0,0.0,798.0,0.0,0.0,0.0,0.0,0.0,,
30.0,5.24017860286295,0.0109008779278068,8.359448196088776,-0.0141371439261282,-0.0200313967625594,-0.0108413594300548,40.0,0.0,802.0,0.0,0.0,0.0,0.0,0.0,800.0833030486189,-0.7426359066552685
30.1,4.995068997651722,0.09630875348449,8.228530605820525,0.0099503831407611,-0.0068306105168343,0.0064679301198554,40.0,0.0,806.0,0.0,0.0,0.0,0.0,0.0,,
30.200000000000003,5.196833094238313,0.1545258973798297,8.425429613939471,-0.0079119222541528,-0.023518154013293,-0.0021915331924242,40.0,0.0,810.0,0.0,0.0,0.0,0.0,0.0,,
30.3,4.923330464175845,-0.1280769290726776,8.4460206660615,0.0017685188295876,-0.0042485598180807,-0.0015000258082345,40.0,0.0,814.0,0.0,0.0,0.0,0.0,0.0,,
30.4,4.9802982007950085,0.0862910974354113,8.302149349508918,0.0151093237974627,-0.0029858813228426,0.0051884962294484,40.0,0.0,818.0,0.0,0.0,0.0,0.0,0.0,,
30.5,5.061232163488483,0.0549824196895252,8.608679706212332,0.0038712416520182,-0.0081243737464043,0.008615035252061,40.0,0.0,822.0,0.0,0.0,0.0,0.0,0.0,,
30.6,4.7834410689019,0.0362839558664784,8.460724712528677,-0.0010811685727253,-0.0032853751143893,-0.0138184904549763,40.0,0.0,826.0,0.0,0.0,0.0,0.0,0.0,,
30.700000000000003,4.872691263838855,0.0339267351711672,8.489687669924955,-0.0092767514092595,0.010657078408647,-0.003661748482145,40.0,0.0,830.0,0.0,0.0,0.0,0.0,0.0,,
30.8,5.10041858007901,0.0840791542807527,8.368775114648775,0.0187531089260951,-0.0139363683175648,0.0141915417361,40.0,0.0,834.0,0.0,0.0,0.0,0.0,0.0,,
30.9,5.105087347706446,-0.0805930313614967,8.674579006134994,-0.0015004651459895,0.0008869362927985,0.0076032183877122,40.0,0.0,838.0,0.0,0.0,0.0,0.0,0.0,,
31.0,4.934853688779417,0.1416212409739673,8.584732519208178,-0.0164853197323818,0.0110434024287815,-0.0116249198803567,40.0,0.0,842.0,0.0,0.0,0.0,0.0,0.0,837.5746601039759,-4.784826496322683
31.1,5.109881930651248,0.1890057705241374,8.302064246593066,-0.0031081428795458,-0.0130570466848593,0.0028507896971126,40.0,0.0,846.0,0.0,0.0,0.0,0.0,0.0,,
31.200000000000003,4.908794857372138,0.1369490798404009,8.662255523043287,0.0149568381078995,-0.007621680265783,0.0029077812625547,40.0,0.0,850.0,0.0,0.0,0.0,0.0,0.0,,
31.3,4.702484271166856,-0.1008805099744283,8.610436956089965,0.0171558282354823,-0.0143434887187992,-0.0009246425915289,40.0,0.0,854.0,0.0,0.0,0.0,0.0,0.0,,
31.4,4.95103913645616,0.062024173822941,8.344268683137098,0.0052406104446408,-0.0067383934707091,0.0048554772912172,40.0,0.0,858.0,0.0,0.0,0.0,0.0,0.0,,
31.5,5.036942637200554,0.0209633404716406,8.40025132754636,-9.609803925830838e-05,-0.0028836295920533,0.0012998897011787,40.0,0.0,862.0,0.0,0.0,0.0,0.0,0.0,,
31.6,4.916180590599934,0.2597970755757075,8.54984712831653,-0.0019548031802916,0.0049695440451073,0.0016618051024399,40.0,0.0,866.0,0.0,0.0,0.0,0.0,0.0,,
31.700000000000003,5.130968695637995,0.075446328829714,8.449613889524711,0.0054771692581027,-0.0177087615206849,-0.006267674689098,40.0,0.0,870.0,0.0,0.0,0.0,0.0,0.0,,
31.8,4.775911249040141,0.041441464214556,8.72558646104811,0.0233130014619263,0.0043805110144075,0.0100084447494445,40.0,0.0,874.0,0.0,0.0,0.0,0.0,0.0,,
31.9,4.684841339877089,-0.0614010699601032,8.34754164833911,-0.0052084759825111,-0.0036814381858478,0.0002790942230287,40.0,0.0,878.0,0.0,0.0,0.0,0.0,0.0,,
32.0,4.658105028443631,0.13218653841763,8.304797757264375,0.0033924686411114,0.0187408266974997,-0.0041938459158642,40.0,0.0,882.0,0.0,0.0,0.0,0.0,0.0,885.2501032895768,5.424960114283292
32.1,4.57545687158805,-0.0229006332820166,8.630853156375132,0.0205834745422059,-0.0142954959445241,0.0099669922323652,40.0,0.0,886.0,0.0,0.0,0.0,0.0,0.0,,
32.2,4.885203431482991,0.0041077468543796,8.8623607131779,-0.0140297032839515,0.0005373966149457,0.0096769317176543,40.0,0.0,890.0,0.0,0.0,0.0,0.0,0.0,,
32.300000000000004,5.117867948740901,0.0346974730206343,8.511916792050961,-0.0029164856742179,0.000691269412451,0.0015680772450258,40.0,0.0,894.0,0.0,0.0,0.0,0.0,0.0,,
32.4,5.048235783478407,-0.035441550406545,8.522274270210673,0.0007073718631502,0.0092605025077216,0.0044860627641151,40.0,0.0,898.0,0.0,0.0,0.0,0.0,0.0,,
32.5,4.689045129768967,0.2092882251070987,8.329849365995953,-0.0055376633864881,-0.0079566129404349,0.0187443809317081,40.0,0.0,902.0,0.0,0.0,0.0,0.0,0.0,,
32.6,4.634648867903195,0.490662280048999,8.624117732485253,0.0032323891412915,-0.0025489400061628,0.0078555407485765,40.0,0.0,906.0,0.0,0.0,0.0,0.0,0.0,,
32.7,5.0331683642569,0.1167823378925085,8.549049881025862,0.0018958068125524,-0.0039733842030732,0.0034872671634648,40.0,0.0,910.0,0.0,0.0,0.0,0.0,0.0,,
32.800000000000004,4.925763757947097,0.1900655145300596,8.554742719467475,-0.0284038863466428,0.0045590077652976,0.0069473619471877,40.0,0.0,914.0,0.0,0.0,0.0,0.0,0.0,,
32.9,4.952193686533114,-0.0382777679633328,8.634326119123248,0.0104752646212285,-0.009728776678236,0.0090705228712453,40.0,0.0,918.0,0.0,0.0,0.0,0.0,0.0,,
33.0,4.809251489818807,-0.1869427247183396,8.37170162743685,0.0096239347238275,0.0075312504537608,0.0101308542009729,40.0,0.0,922.0,0.0,0.0,0.0,0.0,0.0,921.7119595136787,4.014131591568097
33.1,5.063764368027199,0.0974267430672437,8.369486971841903,0.0053192254467394,0.0060040952522768,0.0125429132981357,40.0,0.0,926.0,0.0,0.0,0.0,0.0,0.0,,
33.2,5.133337005721196,0.1262455770801595,8.518426442256583,0.0117015023831642,-0.0022652125924906,-0.0038187465122771,40.0,0.0,930.0,0.0,0.0,0.0,0.0,0.0,,
33.300000000000004,4.930539955408435,-0.0917353967209673,8.364432469879189,-0.0004451867071551,-0.0099241992099996,0.0019203847036095,40.0,0.0,934.0,0.0,0.0,0.0,0.0,0.0,,
33.4,4.670957799956931,0.0519940561059407,8.465890032429678,-0.0071708863106819,0.004592456684324,0.0143757013762655,40.0,0.0,938.0,0.0,0.0,0.0,0.0,0.0,,
33.5,4.713866020344653,-0.0944087167849321,8.35033785865725,-0.0083990310110886,0.0062947484193174,0.0030617386122719,40.0,0.0,942.0,0.0,0.0,0.0,0.0,0.0,,
33.6,4.915322773803408,-0.2805793546610129,8.56102191565673,-0.0113925839485347,-0.0014006736973367,0.0077737693795819,40.0,0.0,946.0,0.0,0.0,0.0,0.0,0.0,,
33.7,5.159098789375797,-0.1763230598678668,8.012782387752221,0.0028384954475369,0.0160051118151085,0.0173894635293943,40.0,0.0,950.0,0.0,0.0,0.0,0.0,0.0,,
33.800000000000004,4.986448912291193,-0.0537454278448071,8.586777600620941,-0.0087354619970446,0.0027635776935621,0.0100547015916662,40.0,0.0,954.0,0.0,0.0,0.0,0.0,0.0,,
33.9,5.114031486124831,0.4339490058366617,8.52457160620216,-0.0040896362570749,-0.0022557431219199,-0.0126907590488911,40.0,0.0,958.0,0.0,0.0,0.0,0.0,0.0,,
34.0,4.85079303033664,-0.0413923657169656,8.387095951435157,0.0025235487203372,-0.010224199323822,0.0162103066732447,40.0,0.0,962.0,0.0,0.0,0.0,0.0,0.0,963.4465441001905,-2.580479018420497
34.1,4.9550310597377285,0.0186049518292078,8.416525003648408,0.0025519068385897,0.0062509826466763,-0.003671302157109,40.0,0.0,966.0,0.0,0.0,0.0,0.0,0.0,,
34.2,4.856282526638711,-0.0255589043164997,8.263828572604362,-0.0071925785972149,-0.0067622087354465,0.0137438918071272,40.0,0.0,970.0,0.0,0.0,0.0,0.0,0.0,,
34.300000000000004,4.994384199350288,0.0490384867051316,8.59334390545054,-0.0003737178839939,0.0019046484992888,0.003967782470675,40.0,0.0,974.0,0.0,0.0,0.0,0.0,0.0,,
34.4,4.994804352409943,-0.0674137986417373,8.09988663738388,-0.000342791621863,0.0122274813609994,0.0142621540224159,40.0,0.0,978.0,0.0,0.0,0.0,0.0,0.0,,
34.5,5.099809622688674,0.2054196082709326,8.47900784976956,0.0029731570740559,-0.0081765189543435,0.0018392714397295,40.0,0.0,982.0,0.0,0.0,0.0,0.0,0.0,,
34.6,5.047365672465671,0.2005826655753224,8.444792269773195,-0.0035018926485141,-0.001994720411434,0.0110120674892911,40.0,0.0,986.0,0.0,0.0,0.0,0.0,0.0,,
34.7,4.738421777579968,-0.3244271429705856,8.383128683701608,-0.0112071242591415,-0.0070814019764731,0.0035221968118252,40.0,0.0,990.0,0.0,0.0,0.0,0.0,0.0,,
34.800000000000004,4.887012738646547,0.2378701301706118,8.514720925815693,0.0040047435961082,0.004222071440434,-0.0063883311778076,40.0,0.0,994.0,0.0,0.0,0.0,0.0,0.0,,
34.9,5.11086676811304,0.008635357019681,8.566281303711527,-0.0097185723304015,-0.0175375876601606,0.0131788965802502,40.0,0.0,998.0,0.0,0.0,0.0,0.0,0.0,,
35.0,5.011461428914627,-0.1153077331536265,8.33525974893414,0.0122543478441476,-0.0138941189286732,0.0214267295325596,40.0,0.0,1002.0,0.0,0.0,0.0,0.0,0.0,1003.4455824220337,6.152146265863877
35.1,4.819906889802819,0.1157587888412574,8.416416439762997,0.0070318743108234,-0.0074411400211419,0.003372070939277,40.0,0.0,1006.0,0.0,0.0,0.0,0.0,0.0,,
35.2,4.961137876309357,-0.1303281183672209,8.576832862938364,-0.0041321356647158,-0.0042859991534001,-0.0049434937460851,40.0,0.0,1010.0,0.0,0.0,0.0,0.0,0.0,,
35.300000000000004,4.570649951180703,-0.0086541643900253,8.827601524367282,0.0088460428789802,-0.0021926037973439,0.0023710917079173,40.0,0.0,1014.0,0.0,0.0,0.0,0.0,0.0,,
35.4,4.958369883921806,0.1020678672762814,8.288587288829019,0.0121432169466887,0.0051538131544124,0.0121818572570793,40.0,0.0,1018.0,0.0,0.0,0.0,0.0,0.0,,
35.5,5.020771360821458,0.0229424986540984,8.566638396520368,0.0069181413374137,-0.0055404071094102,-0.000736017728969,40.0,0.0,1022.0,0.0,0.0,0.0,0.0,0.0,,
35.6,4.970278444289297,0.2523530227242781,8.27984314977726,-0.0136752526575244,-0.0003523915876348,0.0055088770185601,40.0,0.0,1026.0,0.0,0.0,0.0,0.0,0.0,,
35.7,4.98100124965556,0.056592979686275,8.432228872930125,0.0158986343860208,-0.0180090397847651,-0.0032849702478024,40.0,0.0,1030.0,0.0,0.0,0.0,0.0,0.0,,
35.800000000000004,4.9395117859776425,-0.2264783216731251,8.439331050460535,0.0176147016572801,-0.0017911351170403,0.0073070090571868,40.0,0.0,1034.0,0.0,0.0,0.0,0.0,0.0,,
35.9,4.765975285224112,-0.0724542112059216,8.409429754076754,-0.0021771509675623,0.0108164379500376,0.0105769106072512,40.0,0.0,1038.0,0.0,0.0,0.0,0.0,0.0,,
36.0,4.788281306459444,0.0569757167648007,8.540442473399862,0.0124014903852126,0.0138054068656837,-0.0051509419182786,40.0,0.0,1042.0,0.0,0.0,0.0,0.0,0.0,1041.8566958435601,6.258574623256025
36.1,4.833371373318449,-0.1686366788371924,8.430606232259297,0.0056635837444633,0.007873345165891,0.0042404897635747,40.0,0.0,1046.0,0.0,0.0,0.0,0.0,0.0,,
36.2,4.9070228715117725,0.042763698837311,8.340437775880842,0.0218953872169477,-0.0180766102711805,0.0068474057889572,40.0,0.0,1050.0,0.0,0.0,0.0,0.0,0.0,,
36.3,5.258540932884445,0.0210199766839996,8.437203355875122,-0.0025744542281042,-0.003803916817624,0.0187284847467653,40.0,0.0,1054.0,0.0,0.0,0.0,0.0,0.0,,
36.4,4.623220713300573,0.2500150551944488,8.252115638257823,-0.0016665232923441,-0.0062924442029866,0.0108855326977071,40.0,0.0,1058.0,0.0,0.0,0.0,0.0,0.0,,
36.5,4.715281347217437,0.0893258999122914,8.769355654618373,-0.0126317400459281,-0.000102938323896,-0.001619821777966,40.0,0.0,1062.0,0.0,0.0,0.0,0.0,0.0,,
36.6,5.018883080928955,0.0228721666123628,8.3694861747687,0.0058787228487107,0.0160434810978674,0.003090962082727,40.0,0.0,1066.0,0.0,0.0,0.0,0.0,0.0,,
36.7,5.062963691322227,-0.1739909436806745,8.322243754602644,0.0057240627788037,0.0128411602853596,0.0085561334878566,40.0,0.0,1070.0,0.0,0.0,0.0,0.0,0.0,,
36.8,4.908041295421526,0.0198937108135031,8.278148051029888,0.0070451532635536,0.006823330623234,0.0004790966716691,40.0,0.0,1074.0,0.0,0.0,0.0,0.0,0.0,,
36.9,4.884493677836074,0.0598817344478072,8.400201250719256,0.0003386738537417,0.0189972178916651,0.00252974299254,40.0,0.0,1078.0,0.0,0.0,0.0,0.0,0.0,,
37.0,4.901248977196816,-0.0771312708452738,8.577338006850336,-0.000812241732181,-0.0084937303832142,0.0182130403227301,40.0,0.0,1082.0,0.0,0.0,0.0,0.0,0.0,1071.521019583641,3.2876100175008953
37.1,5.167940450677045,-0.0700635348608057,8.185728218421252,0.0110751368983692,-0.0088462982576,0.0129062559916276,40.0,0.0,1086.0,0.0,0.0,0.0,0.0,0.0,,
37.2,4.659484427343224,0.1538896007448963,8.284033421733229,0.0083076411906652,-0.0018572693216356,-0.0045393941939664,40.0,0.0,1090.0,0.0,0.0,0.0,0.0,0.0,,
37.3,4.893944553060982,0.1229477685435051,8.48159337909263,0.0068441298047248,0.0177644058451548,-0.0106424161171105,40.0,0.0,1094.0,0.0,0.0,0.0,0.0,0.0,,
37.4,5.197581886245293,0.0356533906284819,8.330891603876877,-0.0123031362573898,-0.0038912039077703,0.0142165011192445,40.0,0.0,1098.0,0.0,0.0,0.0,0.0,0.0,,
37.5,4.935867631943369,0.2466732395371021,8.248032857617611,0.0008791105215394,-0.0145239344441311,0.0086363188262496,40.0,0.0,1102.0,0.0,0.0,0.0,0.0,0.0,,
37.6,5.088033108514594,-0.0431142690521579,8.075077132631275,0.0029894814679649,0.002367385517335,0.0090429475496169,40.0,0.0,1106.0,0.0,0.0,0.0,0.0,0.0,,
37.7,5.140367328773323,-0.1406580519473573,8.567741626942913,0.0129250751247797,-0.0197858758400651,0.0081965182591897,40.0,0.0,1110.0,0.0,0.0,0.0,0.0,0.0,,
37.8,4.8793730253488485,0.0077715990347531,8.517860683656096,-0.0038722856411355,-0.0087570807916161,0.0053415241748802,40.0,0.0,1114.0,0.0,0.0,0.0,0.0,0.0,,
37.9,4.791913109170578,-0.1428737693327778,8.56761520356882,-0.0104879403515865,0.0046631250090921,0.0096259129285395,40.0,0.0,1118.0,0.0,0.0,0.0,0.0,0.0,,
38.0,4.69612899068141,-0.0816346978503482,8.64482562158245,-0.0088116553113968,-0.0066440426230938,0.0096206089325189,40.0,0.0,1122.0,0.0,0.0,0.0,0.0,0.0,1122.3481882729527,-1.1960294018634698
38.1,5.072508576392389,-0.0177308329066743,8.376082681921599,0.015223698616985,0.0153889966379757,0.0147885805078179,40.0,0.0,1126.0,0.0,0.0,0.0,0.0,0.0,,
38.2,4.967797721384753,-0.1012398582461389,8.34114255014186,0.0062251410526575,0.0021839822088868,0.0190159859294642,40.0,0.0,1130.0,0.0,0.0,0.0,0.0,0.0,,
38.3,5.05256751388042,-0.2054620452639727,8.623501353783784,-0.0089806062731441,-0.0058397127195235,0.0075020020625169,40.0,0.0,1134.0,0.0,0.0,0.0,0.0,0.0,,
38.400000000000006,5.254350123467594,0.4864877834008041,8.556717669995773,-0.0008319661872038,0.0033450564848055,0.0138765542587383,40.0,0.0,1138.0,0.0,0.0,0.0,0.0,0.0,,
38.5,4.9068998561664205,0.2892817033868483,8.500219825004056,0.0059774308909139,0.0046592425205446,0.0092158661061445,40.0,0.0,1142.0,0.0,0.0,0.0,0.0,0.0,,
38.6,5.080841075070441,-0.0725879779820384,8.381963948033441,-0.0100015423297169,0.0023950123062022,0.0127893650351211,40.0,0.0,1146.0,0.0,0.0,0.0,0.0,0.0,,
38.7,5.023665929922782,0.2711738650021306,8.464869808300989,0.0076874165559251,-0.0129170087613931,0.0011290029752559,40.0,0.0,1150.0,0.0,0.0,0.0,0.0,0.0,,
38.8,5.059330663634865,0.1473653166114716,8.421614168975719,0.0002840074814193,-0.017178737466808,0.0014297079919339,40.0,0.0,1154.0,0.0,0.0,0.0,0.0,0.0,,
38.900000000000006,5.088557474527967,0.1062807524159849,8.540809069332527,0.0014977368718096,-0.0019293684137182,-0.0016032113947344,40.0,0.0,1158.0,0.0,0.0,0.0,0.0,0.0,,
39.0,5.05982426303038,0.0831459416584084,8.539512038324265,-0.0042603484266758,-0.0235334291987124,0.0159715271175369,40.0,0.0,1162.0,0.0,0.0,0.0,0.0,0.0,1162.367043106142,-7.950275658403571
39.1,4.883174381598739,-0.109416364606468,8.569731047912445,-0.0029201263991912,0.0085993638404662,0.0111700594957669,40.0,0.0,1166.0,0.0,0.0,0.0,0.0,0.0,,
39.2,5.057535398480071,-0.1848933566800801,8.647500808933305,0.0036125053123385,-0.005692771392462,0.0064338846734225,40.0,0.0,1170.0,0.0,0.0,0.0,0.0,0.0,,
39.3,4.688564715065251,0.0812979217221006,8.311303484898035,-0.0125267028584353,-0.0172235918621789,0.0161268837498992,40.0,0.0,1174.0,0.0,0.0,0.0,0.0,0.0,,
39.400000000000006,4.8606104909460806,0.2500591564874749,8.385338991667501,-0.0160735795759294,-0.0131652443994865,0.0173581162000693,40.0,0.0,1178.0,0.0,0.0,0.0,0.0,0.0,,
39.5,4.931615273309499,-0.0622430944735901,8.489711945003263,0.0060178273616754,0.0091739881590246,0.0194849922989292,40.0,0.0,1182.0,0.0,0.0,0.0,0.0,0.0,,
39.6,4.901034703131637,-0.1789071529123057,8.403689436956853,0.0036028050658288,-0.0116375892621061,-0.0045715091489504,40.0,0.0,1186.0,0.0,0.0,0.0,0.0,0.0,,
39.7,5.006568182232482,0.0127021472644323,8.470628760437084,-0.0065849533470006,-0.0043040071420576,-0.004242331442683,40.0,0.0,1190.0,0.0,0.0,0.0,0.0,0.0,,
39.8,5.088529761668717,0.1752874002085628,8.188781031789631,-0.0082951086019241,-0.0169652925509007,-0.0015002393440689,40.0,0.0,1194.0,0.0,0.0,0.0,0.0,0.0,,
39.900000000000006,4.942484304531445,-0.1974467829547795,8.327430239156548,-0.0090395737208149,7.267329398943966e-05,0.0056934433703625,40.0,0.0,1198.0,0.0,0.0,0.0,0.0,0.0,,
40.0,4.846739366999411,0.0465231308209097,8.383707198437255,-0.0017165511032605,0.0147345209029853,0.0184046105179034,40.0,0.0,1202.0,0.0,0.0,0.0,0.0,0.0,1201.1213124486499,1.4284502860469857
40.1,4.760062814460859,0.1444598626818761,8.587418694299084,-0.0104826328875261,0.0061877764375486,0.0203793191841255,40.0,0.0,1206.0,0.0,0.0,0.0,0.0,0.0,,
40.2,4.786618279063337,-0.1176254231521395,8.61835843115187,0.0037149531082564,0.0035147627523952,0.0084058921640049,40.0,0.0,1210.0,0.0,0.0,0.0,0.0,0.0,,
40.3,5.013604388139221,-0.1789708192466624,8.622806867118562,0.0126958999242777,-0.0042939074406802,0.0045652305018613,40.0,0.0,1214.0,0.0,0.0,0.0,0.0,0.0,,
40.400000000000006,4.7253338746166405,0.0971382134026752,8.551517827382467,0.0003780898300068,0.009243533598705,0.0016592276902005,40.0,0.0,1218.0,0.0,0.0,0.0,0.0,0.0,,
40.5,5.03969088888404,-0.1329496508038173,8.462176388494209,-0.0007435425790283,0.0002530792204094,0.0013047307116664,40.0,0.0,1222.0,0.0,0.0,0.0,0.0,0.0,,
40.6,4.935279110649249,0.1439070757162259,8.400194575539613,-0.0150657710073867,0.0154958390420542,0.0188145407869048,40.0,0.0,1226.0,0.0,0.0,0.0,0.0,0.0,,
40.7,4.7611605957341565,0.1234561707867791,8.390262995542644,0.0036348721533105,0.0009422412901349,0.0026559219968367,40.0,0.0,1230.0,0.0,0.0,0.0,0.0,0.0,,
40.8,4.837435150162039,-0.0835811578474389,8.32828042380316,-0.0073182220823044,-0.0026717829004935,-0.0021575998911075,40.0,0.0,1234.0,0.0,0.0,0.0,0.0,0.0,,
40.900000000000006,5.057307809856892,0.243086923300389,8.378701224919839,0.0033940450053537,0.0029968511030293,0.0097200227091927,40.0,0.0,1238.0,0.0,0.0,0.0,0.0,0.0,,
41.0,4.966393290187412,0.1314023627539583,8.538046554027444,-0.0113766242232729,0.0066915606438927,0.0138729083726674,40.0,0.0,1242.0,0.0,0.0,0.0,0.0,0.0,1247.911576178966,-2.0730808730945895
41.1,4.840507084373212,0.0256906753171403,8.568208560047006,-0.0010931381957936,0.0087297804776601,0.0286387249461936,40.0,0.0,1246.0,0.0,0.0,0.0,0.0,0.0,,
41.2,4.837102095104751,-0.1871566904730662,8.511282000466077,0.0082156250512614,-0.0043086637384476,0.0195326066332103,40.0,0.0,1250.0,0.0,0.0,0.0,0.0,0.0,,
41.3,4.754209130041512,0.1239377934547416,8.37483008801151,0.0181937790620729,0.0179251535316811,-0.0026665658778334,40.0,0.0,1254.0,0.0,0.0,0.0,0.0,0.0,,
41.400000000000006,4.872566429613713,0.1489381830469702,8.407639613656919,0.0005458878206776,-0.0017461157945758,-0.0141967315619765,40.0,0.0,1258.0,0.0,0.0,0.0,0.0,0.0,,
41.5,4.952924338085864,-0.083459166109626,8.391740787765379,0.0154363200346881,-0.0145650689427925,0.0131320518674797,40.0,0.0,1262.0,0.0,0.0,0.0,0.0,0.0,,
41.6,4.913155560450228,-0.0219640252743751,8.584264995533102,0.0044005129456889,0.0037061299721953,0.0146818466053286,40.0,0.0,1266.0,0.0,0.0,0.0,0.0,0.0,,
41.7,4.9053037425225,-0.0718355101761625,8.302936632141675,-0.0072541052997895,0.0274909442530872,0.0174467958073678,40.0,0.0,1270.0,0.0,0.0,0.0,0.0,0.0,,
41.8,4.752338845068796,-0.1783686935115355,8.537989120383118,0.0064726479737796,0.0034888383531736,0.002450442064463,40.0,0.0,1274.0,0.0,0.0,0.0,0.0,0.0,,
41.900000000000006,4.9361818609995645,0.0691819286239036,8.478593162069345,-0.0211930037274753,-0.0042979963057519,-0.0035140643426031,40.0,0.0,1278.0,0.0,0.0,0.0,0.0,0.0,,
42.0,4.981281712836276,0.4677888503905115,8.520831460946491,-0.0021352968617239,0.0072180150197725,0.0098268788720921,40.0,0.0,1282.0,0.0,0.0,0.0,0.0,0.0,1278.7660255884273,-2.007028174338146
42.1,5.018014173567775,0.1110275889823506,8.774190745849776,-0.0103088843532591,0.0027363207681145,-0.0042638112998153,40.0,0.0,1286.0,0.0,0.0,0.0,0.0,0.0,,
42.2,5.038326896951337,-0.1178029767229141,8.403104189084582,-0.001950899142379,0.007758167193447,0.0141845444394241,40.0,0.0,1290.0,0.0,0.0,0.0,0.0,0.0,,
42.3,4.768142393533042,0.0282401166499773,8.35927223291297,-0.0115850491067533,-0.0041701705042437,0.0019151721154418,40.0,0.0,1294.0,0.0,0.0,0.0,0.0,0.0,,
42.400000000000006,5.319007472951828,0.0849439738041044,8.25906658601221,-0.0046477400417094,0.0082138329542939,0.0258844277286992,40.0,0.0,1298.0,0.0,0.0,0.0,0.0,0.0,,
42.5,4.7171025031643055,-0.2619886577708567,8.746353987431112,0.004896141773709,-0.0106829273187636,0.0103462908612243,40.0,0.0,1302.0,0.0,0.0,0.0,0.0,0.0,,
42.6,4.559637839147468,0.0205063259895741,8.514882387051808,0.0102427013953783,-0.0121389595229253,0.0058568716140335,40.0,0.0,1306.0,0.0,0.0,0.0,0.0,0.0,,
42.7,4.816186306091061,0.0583075633511475,8.331407262770892,-0.0030810083916022,-0.0119581539479022,0.0115113624182365,40.0,0.0,1310.0,0.0,0.0,0.0,0.0,0.0,,
42.8,5.083767667498499,-0.015193085493612,8.47144491036935,-0.0134859141463354,-0.0049967664800678,0.0044979538295825,40.0,0.0,1314.0,0.0,0.0,0.0,0.0,0.0,,
42.900000000000006,5.348118963654495,-0.1467950538661245,8.68533579693821,0.010968587734658,0.0008063640449013,0.0225862048419513,40.0,0.0,1318.0,0.0,0.0,0.0,0.0,0.0,,
43.0,5.010815820891029,0.0783738793501893,8.457741113172712,0.0132356888241862,0.0089646923381088,-0.0012567728749621,40.0,0.0,1322.0,0.0,0.0,0.0,0.0,0.0,1325.6616084708082,1.3150044386387378
43.1,4.757112920810184,-0.0104470956093485,8.345703426465699,0.0003647542538464,0.0103743813468413,0.0004269834491321,40.0,0.0,1326.0,0.0,0.0,0.0,0.0,0.0,,
43.2,4.948576492803263,0.0287034102212592,8.592973843456138,-0.021468893339846,-0.0080670029476529,0.0071128369227947,40.0,0.0,1330.0,0.0,0.0,0.0,0.0,0.0,,
43.3,5.135011843464028,-0.0537853671259307,8.184226305219063,0.0071971144596613,-0.0083536238882562,-0.0068966665909036,40.0,0.0,1334.0,0.0,0.0,0.0,0.0,0.0,,
43.400000000000006,4.861348191543016,-0.0076788036483774,8.374997511444613,-0.0210556605709906,0.0069706619688713,0.0177487504127872,40.0,0.0,1338.0,0.0,0.0,0.0,0.0,0.0,,
43.5,5.052728298700925,-0.1506528505637225,8.435485481033217,0.0009347868477054,0.0039879438956191,0.0116834048871808,40.0,0.0,1342.0,0.0,0.0,0.0,0.0,0.0,,
43.6,4.844873930183224,0.032299333462034,8.53430127181763,0.0155582232214676,0.0050450653982472,0.0128905668737551,40.0,0.0,1346.0,0.0,0.0,0.0,0.0,0.0,,
43.7,4.967573994189404,0.2315688717805255,8.52717363051927,-0.0076108791017357,0.0120336997012519,0.0119790327253902,40.0,0.0,1350.0,0.0,0.0,0.0,0.0,0.0,,
43.8,4.888543396830727,-0.0519239451098865,8.51019554289646,0.0056318479526758,-2.7077343687935667e-05,0.0081130867344288,40.0,0.0,1354.0,0.0,0.0,0.0,0.0,0.0,,
43.900000000000006,5.2099936061864565,0.1807314728352328,8.494304549815098,0.0104131058076748,-0.0123252390352753,0.008979270499468,40.0,0.0,1358.0,0.0,0.0,0.0,0.0,0.0,,
44.0,5.226395952459965,-0.012706884308856,8.338564121832482,-0.0055208888859306,-0.0128963303734238,-0.002847619081277,40.0,0.0,1362.0,0.0,0.0,0.0,0.0,0.0,1359.880959184932,2.0530697324534244
44.1,4.899423785211495,-0.1908350528767963,8.468051961217785,0.0100227717378664,-0.0110775618014692,0.0201928392364176,40.0,0.0,1366.0,0.0,0.0,0.0,0.0,0.0,,
44.2,5.031618813279138,0.1745870878436085,8.367034028047524,0.0095452522706661,-0.0129193390039531,0.013902475008365,40.0,0.0,1370.0,0.0,0.0,0.0,0.0,0.0,,
44.3,4.980775900969029,0.1029876829977175,8.289370020281618,-0.007950698422766,0.0039722821825338,-0.004483480042242,40.0,0.0,1374.0,0.0,0.0,0.0,0.0,0.0,,
44.400000000000006,5.024480943814868,-0.1850706709690368,8.592935343025346,-0.011325233147685,0.0035229993767952,0.01125630933646,40.0,0.0,1378.0,0.0,0.0,0.0,0.0,0.0,,
44.5,4.850484227235563,0.107303985062709,8.504775550625379,-0.0043884185619273,-0.012085546840762,-0.0146262569167257,40.0,0.0,1382.0,0.0,0.0,0.0,0.0,0.0,,
44.6,5.007447507094954,-0.2147204157043082,8.480010841041542,-0.0016344821608224,0.0047914277543819,0.0019795450051013,40.0,0.0,1386.0,0.0,0.0,0.0,0.0,0.0,,
44.7,4.905582832047935,0.1297806056432443,8.515967915487963,0.0041615595718277,0.0026926758980852,-0.010355721232071,40.0,0.0,1390.0,0.0,0.0,0.0,0.0,0.0,,
44.8,5.068518301998046,0.1118703191020403,8.31320674183887,-0.001440804736742,-0.0023930728762763,0.0036550321559826,40.0,0.0,1394.0,0.0,0.0,0.0,0.0,0.0,,
44.900000000000006,5.005078994985279,0.2347050172746775,8.62797422027627,-0.012122191934314,0.0042206999030604,0.018289333195354,40.0,0.0,1398.0,0.0,0.0,0.0,0.0,0.0,,
45.0,5.01302127810338,0.183647063777895,8.76754977798046,0.0112370954610698,0.0004930859564172,0.0154508847408475,40.0,0.0,1402.0,0.0,0.0,0.0,0.0,0.0,1402.3883101973922,3.874579962131557
45.1,4.976733174964533,0.0235854564927433,8.412997075768285,0.016634133588321,-0.01018428665942,0.0203236772467811,40.0,0.0,1406.0,0.0,0.0,0.0,0.0,0.0,,
45.2,5.029979618561055,-0.1898959262202912,8.520856605074059,-0.0200002650765162,0.0042550801683103,0.0138523148298899,40.0,0.0,1410.0,0.0,0.0,0.0,0.0,0.0,,
45.3,4.866146606652191,0.0385321543933373,8.758832826187888,-0.0040574670426193,-0.012589075870566,0.0198166340246259,40.0,0.0,1414.0,0.0,0.0,0.0,0.0,0.0,,
45.400000000000006,5.249388078579618,0.0205543507771771,8.617428666436599,0.0144147591553088,-0.0094248423253838,0.0001469416463213,40.0,0.0,1418.0,0.0,0.0,0.0,0.0,0.0,,
45.5,5.139631176973209,0.2727521418062764,8.550141340151498,-0.0077981435350205,0.0178706111169944,-0.0003097089781196,40.0,0.0,1422.0,0.0,0.0,0.0,0.0,0.0,,
45.6,4.904729332824282,0.0713506751734432,8.69883327423256,0.0095397597655222,0.0021486550036191,0.009632885301181,40.0,0.0,1426.0,0.0,0.0,0.0,0.0,0.0,,
45.7,4.961527200296519,0.1037209271777759,8.0862751994712,-0.0019660745906979,0.0004132193491678,-0.006510140836195,40.0,0.0,1430.0,0.0,0.0,0.0,0.0,0.0,,
45.8,5.012948497671733,-0.0106706831479182,8.72903056587267,0.0167301972521485,-0.0066580556911816,0.003491622884333,40.0,0.0,1434.0,0.0,0.0,0.0,0.0,0.0,,
45.900000000000006,4.9439078651587405,-0.0477489214239433,8.494962958729564,-0.0065828206888759,-0.0133061533493752,0.0112271122390026,40.0,0.0,1438.0,0.0,0.0,0.0,0.0,0.0,,
46.0,5.049429437633271,-0.1006473639489988,8.600012525739736,-0.0053157772916533,0.0005316523803798,0.0132034401261245,40.0,0.0,1442.0,0.0,0.0,0.0,0.0,0.0,1439.1917876244906,-1.3106485863910728
46.1,4.949958115294442,0.0882111368211701,8.38824476454221,-0.0009646658342809,-0.0040585943088034,-0.0024657834654023,40.0,0.0,1446.0,0.0,0.0,0.0,0.0,0.0,,
46.2,4.928483875532632,-0.212292744829562,8.392036149054029,-0.0018487549336967,-0.0045617975249538,0.0025850255412922,40.0,0.0,1450.0,0.0,0.0,0.0,0.0,0.0,,
46.3,4.94573537002098,0.0919162277129095,8.596886772245224,-0.0054976522684826,-0.0140320085538914,-0.005420444122431,40.0,0.0,1454.0,0.0,0.0,0.0,0.0,0.0,,
46.400000000000006,4.8819195618207605,-0.0327881976724763,8.350209801195726,-0.0119611666424989,-0.0065612082747418,0.0068142662011397,40.0,0.0,1458.0,0.0,0.0,0.0,0.0,0.0,,
46.5,5.044254419875334,-0.0636134579662481,8.40375953780383,-0.0082669830884731,-0.0023143917037477,-0.0034842863419081,40.0,0.0,1462.0,0.0,0.0,0.0,0.0,0.0,,
46.6,5.04096917198618,-0.2478799737901167,8.411764760257476,0.0040110733919174,-0.0001616548367749,0.0319303366398049,40.0,0.0,1466.0,0.0,0.0,0.0,0.0,0.0,,
46.7,5.007470003685185,-0.1306081895263015,8.451389574061984,-0.0167624633346645,-0.0028059974929676,-0.0033305605700075,40.0,0.0,1470.0,0.0,0.0,0.0,0.0,0.0,,
46.8,5.092308541334024,-0.0624310411893302,8.448194323756057,-0.005355578414044,0.0153885135185333,0.0017875723388208,40.0,0.0,1474.0,0.0,0.0,0.0,0.0,0.0,,
46.900000000000006,5.229883556521879,0.1421227643177399,8.538019220225653,0.0046873314731751,0.0019379729821625,-0.0142767257934561,40.0,0.0,1478.0,0.0,0.0,0.0,0.0,0.0,,
47.0,4.9131674908773855,0.1467736956776482,8.45837463360423,-0.0130518984680357,-0.0025240445057746,0.0220410551625549,40.0,0.0,1482.0,0.0,0.0,0.0,0.0,0.0,1480.4315673874714,-5.854059792528474
47.1,5.142033757330207,0.0106993985950952,8.608426602684059,-0.0026650702036805,-0.0190387158682671,-0.0042446598812955,40.0,0.0,1486.0,0.0,0.0,0.0,0.0,0.0,,
47.2,5.189433315276228,-0.0210989622743956,8.429201614219092,-0.0019983819627488,0.01704136589573,0.0212595891536206,40.0,0.0,1490.0,0.0,0.0,0.0,0.0,0.0,,
47.3,5.287817035017219,-0.0038567815600076,8.510052884437409,-0.0141664254942079,0.0127693442611827,-0.0066777955126793,40.0,0.0,1494.0,0.0,0.0,0.0,0.0,0.0,,
47.400000000000006,4.987516334564393,-0.1445953791449266,8.37737918711454,-0.007372624310497,-0.0080787526067581,-0.0003912270314897,40.0,0.0,1498.0,0.0,0.0,0.0,0.0,0.0,,
47.5,4.872759680761238,0.145000086767046,8.299979792165967,0.0032054142701386,0.0101795915230555,-0.0001319636451339,40.0,0.0,1502.0,0.0,0.0,0.0,0.0,0.0,,
47.6,4.847312166387859,-0.0145786937770376,8.642667992379451,0.0029410763095335,-0.0073121429460759,0.0098387665118803,40.0,0.0,1506.0,0.0,0.0,0.0,0.0,0.0,,
47.7,4.789656177524535,0.1222039265664421,8.52700030728061,-0.0020780847113888,-0.0103858579844723,-0.0038668092228345,40.0,0.0,1510.0,0.0,0.0,0.0,0.0,0.0,,
47.8,5.035222600451886,0.2043470753733592,8.370113049071026,0.0055838670355148,-0.0228702701860206,-0.0008461773065719,40.0,0.0,1514.0,0.0,0.0,0.0,0.0,0.0,,
47.900000000000006,4.950341160069364,-0.116452512547275,8.325233254906905,-0.0056777955646888,0.0009219272832637,0.0031267098159362,40.0,0.0,1518.0,0.0,0.0,0.0,0.0,0.0,,
48.0,4.619265315001253,-0.2981050228952599,8.374679434446769,0.0055768658605355,-0.0294750484272523,2.6982384836934936e-06,40.0,0.0,1522.0,0.0,0.0,0.0,0.0,0.0,1523.1844811082583,1.0442210887195573
48.1,4.876062821522386,0.2282506667312671,8.407955939368415,0.0048298898474092,-0.0005874285991253,-0.016305664798072,40.0,0.0,1526.0,0.0,0.0,0.0,0.0,0.0,,
48.2,5.07023108249476,0.0523094758184431,8.541949507076534,0.0402623770643632,-0.0228411293949858,0.022246966497611,40.0,0.0,1530.0,0.0,0.0,0.0,0.0,0.0,,
48.3,4.9118828720899455,0.0630993356604514,8.458882374330159,-0.0032423633339804,-0.0076983292823875,0.00829508735573,40.0,0.0,1534.0,0.0,0.0,0.0,0.0,0.0,,
48.400000000000006,4.727423945499248,0.1325868751282648,8.403280050392556,-0.0103006933904035,-0.0065001285799581,0.0175714921686257,40.0,0.0,1538.0,0.0,0.0,0.0,0.0,0.0,,
48.5,4.874699736947566,0.073768042731443,8.356065769768025,0.0085792184992361,0.004855077387902,0.0234860883329641,40.0,0.0,1542.0,0.0,0.0,0.0,0.0,0.0,,
48.6,4.9286654081751164,0.120298220713686,8.480419342056187,0.0139587178186301,-0.0091883238760873,0.0124500531287728,40.0,0.0,1546.0,0.0,0.0,0.0,0.0,0.0,,
48.7,4.925795405582497,0.0103717734337253,8.4794720837926,0.0035224039642667,-0.0031622904312195,0.0071471318317052,40.0,0.0,1550.0,0.0,0.0,0.0,0.0,0.0,,
48.8,5.191717708634327,0.1678174528422827,8.59608239999988,-0.0035553952602387,-0.0108924082822832,0.0145530055823775,40.0,0.0,1554.0,0.0,0.0,0.0,0.0,0.0,,
48.900000000000006,5.086407018879468,0.2409006013626473,8.37511211722996,-0.0012954865536034,-0.0183948416252543,0.0010752889393912,40.0,0.0,1558.0,0.0,0.0,0.0,0.0,0.0,,
49.0,5.104485576586916,-0.0499743068842296,8.561781180405468,-0.0009050310599781,0.0012405702822156,-0.0064769138981566,40.0,0.0,1562.0,0.0,0.0,0.0,0.0,0.0,1562.0204538265698,-0.9383485335005877
49.1,4.967781417445084,-0.4286703956351084,8.437674787401047,-0.0153047324371514,0.0100599451654681,0.0127740735276451,40.0,0.0,1566.0,0.0,0.0,0.0,0.0,0.0,,
49.2,5.025000647294911,0.2481509340739069,8.32337173300162,0.0184736319791555,0.0073219156426038,0.0026344471278105,40.0,0.0,1570.0,0.0,0.0,0.0,0.0,0.0,,
49.3,5.125343022077441,-0.1459440268617451,8.342032086896195,-0.005085897232397,-0.0072897770806401,-0.0055655764276025,40.0,0.0,1574.0,0.0,0.0,0.0,0.0,0.0,,
49.400000000000006,5.138462460064298,-0.0188281600554747,8.518584956378877,-0.0047035136641368,-0.0202060330054851,0.0077005735839142,40.0,0.0,1578.0,0.0,0.0,0.0,0.0,0.0,,
49.5,4.668161753687032,0.0097048930871797,8.260461955300423,0.020872759992308,0.0071136272217472,0.0060575379127148,40.0,0.0,1582.0,0.0,0.0,0.0,0.0,0.0,,
49.6,5.1445560016482,-0.1069473966198603,8.54723111792586,0.0029981043371871,0.0006402008133367,0.0177235350010676,40.0,0.0,1586.0,0.0,0.0,0.0,0.0,0.0,,
49.7,5.06487381541697,0.0633085494237534,8.2174760956911,-0.0086004629527946,-0.0032270893359572,0.0059337237427665,40.0,0.0,1590.0,0.0,0.0,0.0,0.0,0.0,,
49.8,4.78546944129891,0.3817515013367631,8.693168319413381,0.0070211832039248,-0.0012796313871625,0.0028779103009884,40.0,0.0,1594.0,0.0,0.0,0.0,0.0,0.0,,
49.900000000000006,4.812212230996664,0.0316220777778293,8.504372092146758,-0.0114176057548162,0.0013417641724489,0.0034474095117525,40.0,0.0,1598.0,0.0,0.0,0.0,0.0,0.0,,
50.0,3.80280346253394,-0.1090577516169252,8.903668381112105,0.0198768765734019,0.0035655312453375,-0.0083548156909989,40.0,0.0,1602.0,0.0,-1.0000000000000142,-1.0000000000000142,0.0,0.0,1596.3385170317983,-1.6825812910614362
50.1,3.2958546358437437,-0.2120955983407548,9.62811286920842,-0.0037112465181787,-0.0029363618873917,0.0182579664754219,39.8,0.0,1605.98,0.0,-2.0000000000000284,-2.0000000000000284,0.0,0.0,,
50.2,3.02987465714346,-0.1895677277669487,9.378169312173458,0.0113837885101931,-0.0171934607547684,-0.0233215559811056,39.6,0.0,1609.94,0.0,-2.0000000000000284,-2.0000000000000284,0.0,0.0,,
50.3,3.155275363669748,0.102761119986638,9.645748473586185,-0.0036316136208539,-0.00611426607116,0.0165390073425574,39.39999999999999,0.0,1613.88,0.0,-2.0000000000000284,-2.0000000000000284,0.0,0.0,,
50.400000000000006,2.942487937476846,-0.0382781162774513,9.494272794614082,0.0054921872128503,-0.0070980669319088,0.0053444101170584,39.19999999999999,0.0,1617.8000000000002,0.0,-1.9999999999999571,-1.9999999999999571,0.0,0.0,,
50.5,2.8497000894192106,-0.0787372618500772,9.533735518008491,-0.0088229403425467,-0.001410157784104,0.0094687250080269,39.0,0.0,1621.7000000000005,0.0,-1.9999999999999571,-1.9999999999999571,0.0,0.0,,
50.6,3.1715668123024328,0.0455695656494856,9.321299326332667,-0.0010661127969604,0.0041021616958922,0.0065697296096843,38.8,0.0,1625.5800000000004,0.0,-2.0000000000000284,-2.0000000000000284,0.0,0.0,,
50.7,3.134969501996508,0.0536324606436189,9.572900679720853,-0.0194994127857747,0.0095907406495589,0.0016374526131892,38.6,0.0,1629.4400000000005,0.0,-2.0000000000000284,-2.0000000000000284,0.0,0.0,,
50.8,3.286772682417132,0.1995870385467841,9.25995815654079,-0.0060944100242754,-0.004885486958757,-0.0028375352112442,38.39999999999999,0.0,1633.2800000000002,0.0,-2.0000000000000284,-2.0000000000000284,0.0,0.0,,
50.900000000000006,3.48318967880668,-0.1085158140740189,9.382377194202292,0.0030438903160297,-0.0140214952607608,0.0010431928824373,38.19999999999999,0.0,1637.1,0.0,-1.9999999999999571,-1.9999999999999571,0.0,0.0,,
51.0,3.270567181618685,-0.0299290606573766,9.451701182290332,-0.0042933211244837,-0.0171447030918076,0.0082159321133923,38.0,0.0,1640.9,0.0,-1.9999999999999571,-1.9999999999999571,0.0,0.0,1639.529141933893,-3.2091090768864756
51.1,3.486189153178184,0.0227602446175157,9.499498828712492,0.0079272275511685,-0.0146933049654669,0.022025146581296,37.8,0.0,1644.68,0.0,-2.0000000000000284,-2.0000000000000284,0.0,0.0,,
51.2,3.253298511894518,0.2647785348633663,9.35575426179676,0.0191806192255782,0.0057515549403478,0.0105304008585235,37.6,0.0,1648.44,0.0,-2.0000000000000284,-2.0000000000000284,0.0,0.0,,
51.3,3.25805286058407,-0.0172792927111674,9.64578895989644,0.0024035986984804,-0.0216706970358715,-0.00617186461707,37.39999999999999,0.0,1652.18,0.0,-2.0000000000000284,-2.0000000000000284,0.0,0.0,,
51.400000000000006,3.195072329602247,0.0664998474748332,9.45722093779034,0.0131897078979366,-0.0215110186403862,0.0064358793650516,37.19999999999999,0.0,1655.9,0.0,-1.9999999999999571,-1.9999999999999571,0.0,0.0,,
51.5,2.9502523086230856,0.1339568443226252,9.451540403959024,0.0051960997202411,-0.0106388296058976,0.0177946493165775,37.0,0.0,1659.6,0.0,-1.9999999999999571,-1.9999999999999571,0.0,0.0,,
51.6,3.379207892039925,0.1075316454517831,9.446281624095842,0.0067985728529513,-0.0090689256798734,0.0135555565902071,36.8,0.0,1663.2800000000002,0.0,-2.0000000000000284,-2.0000000000000284,0.0,0.0,,
51.7,3.4703713265796856,0.1805915839968779,9.356268840654248,0.004614173172731,-0.0149314154375864,0.0107239031117567,36.6,0.0,1666.9400000000005,0.0,-2.0000000000000284,-2.0000000000000284,0.0,0.0,,
51.8,3.2905397043604783,-0.2604724509298246,9.291441634538504,-0.0018313889674376,-0.0050085974714082,-0.007094769354188,36.39999999999999,0.0,1670.5800000000004,0.0,-2.0000000000000284,-2.0000000000000284,0.0,0.0,,
51.900000000000006,3.2812960018339865,0.0577210413410768,9.436568841328546,-0.0065579150015836,0.0084870712641656,0.0215540711308829,36.19999999999999,0.0,1674.2000000000005,0.0,-1.9999999999999571,-1.9999999999999571,0.0,0.0,,
52.0,3.1504149698541783,-0.0718250375732231,9.539390360937125,-0.0025802937974698,-0.0033939720066323,0.0123965315172467,36.0,0.0,1677.8000000000002,0.0,-1.9999999999999571,-1.9999999999999571,0.0,0.0,1677.1548571533363,1.6162034272581536
52.1,2.936545779305004,0.2177453487279003,9.47661128977476,-0.0031149314456218,-0.0028923415422144,0.0046242935502051,35.8,0.0,1681.38,0.0,-2.0000000000000284,-2.0000000000000284,0.0,0.0,,
52.2,2.963268996914359,0.2442407341179853,9.471908055965953,0.0054300213044737,0.0075154977057404,-0.005211624575603,35.599999999999994,0.0,1684.94,0.0,-2.0000000000000284,-2.0000000000000284,0.0,0.0,,
52.3,3.2939699772863817,-0.020146163634819,9.592724827407832,-0.0202722742035149,-0.0029909430024126,-0.0010282065578396,35.39999999999999,0.0,1688.48,0.0,-2.0000000000000284,-2.0000000000000284,0.0,0.0,,
52.400000000000006,3.287788635026282,0.0905066281052303,9.35956532690202,-0.0061217386417604,-0.0031066536855732,-0.003966422273152,35.19999999999999,0.0,1692.0,0.0,-1.9999999999999571,-1.9999999999999571,0.0,0.0,,
52.5,3.3492467467489777,-0.0353810800671169,9.029660978227078,-0.002748220566218,-0.0123854382084397,-0.0113127581546094,35.0,0.0,1695.5,0.0,-1.9999999999999571,-1.9999999999999571,0.0,0.0,,
52.6,3.037335196697712,0.0364112707749455,9.665005335362594,0.0041318447386498,-0.0080650338821573,0.009559041951707,34.8,0.0,1698.98,0.0,-2.0000000000000284,-2.0000000000000284,0.0,0.0,,
52.7,3.154085645898249,-0.0841900553744716,9.292554810890412,-0.0165182880675171,-0.0058992370655944,0.0065805348992013,34.599999999999994,0.0,1702.44,0.0,-2.0000000000000284,-2.0000000000000284,0.0,0.0,,
52.8,3.208455641928864,-0.0423950391921037,9.323847302020845,0.0070824619168496,-0.0151713191994658,0.0127602791384347,34.39999999999999,0.0,1705.88,0.0,-2.0000000000000284,-2.0000000000000284,0.0,0.0,,
52.900000000000006,3.07261663959215,-0.0928652856029552,9.245691432532972,-0.0040140214688563,0.0077531245847797,0.0101562808844395,34.19999999999999,0.0,1709.3000000000002,0.0,-1.9999999999999571,-1.9999999999999571,0.0,0.0,,
53.0,3.369712509235364,0.0983213818900903,9.300158736845768,-0.0023078922432755,-0.0098019912911746,0.0183057490403904,34.0,0.0,1712.7000000000005,0.0,-1.9999999999999571,-1.9999999999999571,0.0,0.0,1720.2447436048426,0.6983112513273558
53.1,3.043430895467151,0.1540546534083666,9.599652291641677,0.0192962020171608,-0.0060968659262949,0.0121232215958016,33.8,0.0,1716.0800000000004,0.0,-2.0000000000000284,-2.0000000000000284,0.0,0.0,,
53.2,3.565196967911924,-0.0726462515400545,9.235453173995506,-0.0178001003390776,0.0051271202886133,-0.0138315020805858,33.599999999999994,0.0,1719.4400000000005,0.0,-2.0000000000000284,-2.0000000000000284,0.0,0.0,,
53.3,3.1671013344904093,0.0855969780558441,9.493485541649846,0.0052544486418417,0.0002228985580085,0.0177886581331339,33.39999999999999,0.0,1722.7800000000002,0.0,-2.0000000000000284,-2.0000000000000284,0.0,0.0,,
53.400000000000006,3.0801017353203397,-0.0815492707687796,9.3498102943347,0.0093019181186261,0.0070039858839506,0.009512253193185,33.19999999999999,0.0,1726.1,0.0,-1.9999999999999571,-1.9999999999999571,0.0,0.0,,
53.5,3.400473242464648,-0.1567061301064571,9.715792827857994,0.0162323862171225,0.0053562199724574,0.0228179890877106,33.0,0.0,1729.4,0.0,-1.9999999999999571,-1.9999999999999571,0.0,0.0,,
53.6,2.974455711279432,-0.0586672204393977,9.355413692023069,0.0082147932375734,-0.0125014073960214,0.0125749514933748,32.8,0.0,1732.68,0.0,-2.0000000000000284,-2.0000000000000284,0.0,0.0,,
53.7,3.4285296140306047,0.1242804350125999,9.508271864674583,-0.0088787334090074,-0.0104685096612536,0.0174961890529666,32.599999999999994,0.0,1735.94,0.0,-2.0000000000000284,-2.0000000000000284,0.0,0.0,,
53.8,3.3398515430168976,0.0141470720933683,9.403022779260477,-0.0192580787311137,-0.0127085241868443,0.0241141908713972,32.39999999999999,0.0,1739.18,0.0,-2.0000000000000284,-2.0000000000000284,0.0,0.0,,
53.900000000000006,3.030880856780789,0.0484219731831621,9.616825807104604,-0.0115492266800229,-0.0001528952521891,0.0143791553751065,32.19999999999999,0.0,1742.4,0.0,-1.9999999999999571,-1.9999999999999571,0.0,0.0,,
54.0,3.2248240907172465,0.4502604583500152,9.215419322293595,0.0115872852988387,-0.0037280173739646,0.0127192015483667,32.0,0.0,1745.6,0.0,-1.9999999999999571,-1.9999999999999571,0.0,0.0,1746.630201562891,-0.29778366306466886
54.1,3.2891452651859843,-0.0899734295664994,9.50005866999426,-0.0175790145139828,0.0040324750057139,0.0079815846599052,31.8,0.0,1748.7800000000002,0.0,-2.0000000000000284,-2.0000000000000284,0.0,0.0,,
54.2,3.318748217727563,0.1787177487630725,9.520852187156816,0.0024808941979827,-0.0108106833666129,-0.0021222076364905,31.599999999999994,0.0,1751.9400000000005,0.0,-2.0000000000000284,-2.0000000000000284,0.0,0.0,,
54.3,3.400959385457697,0.2354503108558967,9.429992645678553,0.0014600274725327,-0.0110461437499376,0.0167275684526744,31.39999999999999,0.0,1755.0800000000004,0.0,-2.0000000000000284,-2.0000000000000284,0.0,0.0,,
54.400000000000006,3.322761715984925,0.3111826154695624,9.333960749548362,-0.0027800789901821,0.0003144592252557,0.0114648953772577,31.19999999999999,0.0,1758.2000000000005,0.0,-1.9999999999999571,-1.9999999999999571,0.0,0.0,,
54.5,3.190599046799014,-0.110944163568055,9.59792034046386,0.0082113536254558,-0.0111627410056372,0.0185544280110549,31.0,0.0,1761.3000000000002,0.0,-1.9999999999999571,-1.9999999999999571,0.0,0.0,,
54.6,3.398478998810588,0.0401444745871689,9.477648890481763,0.006540577711159,-0.0106170307025625,0.0053003147916408,30.8,0.0,1764.38,0.0,-2.0000000000000284,-2.0000000000000284,0.0,0.0,,
54.7,2.9000916607397205,0.1514683468254403,9.23148522775908,0.0160341982842899,-0.0053012009396645,0.0028833301806882,30.599999999999994,0.0,1767.44,0.0,-2.0000000000000284,-2.0000000000000284,0.0,0.0,,
54.8,3.128789106518422,-0.0232058310883114,9.678488912897564,-0.0238780865653507,0.0107696538608818,0.008380234811017,30.39999999999999,0.0,1770.48,0.0,-2.0000000000000284,-2.0000000000000284,0.0,0.0,,
54.900000000000006,3.0418959452525764,-0.1412968589573857,9.717168165206555,-0.0084550687994273,-0.0135335051059595,0.0163731454236472,30.19999999999999,0.0,1773.5,0.0,-1.9999999999999571,-1.9999999999999571,0.0,0.0,,
55.0,3.273732123874046,-0.1206888364804598,9.498202957436016,-0.0092575268364027,0.009008213984226,0.0156137096487313,30.0,0.0,1776.5,0.0,-1.9999999999999571,-1.9999999999999571,0.0,0.0,1768.8249151388038,-0.10605550179686751
55.1,3.302750122254389,0.0742491591870524,9.729887429855465,0.0009968632738822,-0.013818741254208,0.009494739128323,29.8,0.0,1779.48,0.0,-2.0000000000000284,-2.0000000000000284,0.0,0.0,,
55.2,3.5358562498616646,-0.1322139239778778,9.41148979612126,0.0051644603810145,-0.0025390484900573,-0.0048230358037731,29.599999999999994,0.0,1782.44,0.0,-2.0000000000000284,-2.0000000000000284,0.0,0.0,,
55.3,3.391227870865668,0.3680061083025889,9.495128929978945,-0.00804068289736,-0.0174896052505347,0.0075797598122118,29.39999999999999,0.0,1785.38,0.0,-2.0000000000000284,-2.0000000000000284,0.0,0.0,,
55.400000000000006,3.3885307939285974,0.0912751619743072,9.465348634987496,-0.004892716517893,-0.0129216363271808,0.0133475132632488,29.19999999999999,0.0,1788.3000000000002,0.0,-1.9999999999999571,-1.9999999999999571,0.0,0.0,,
55.5,3.360014935638997,-0.2118594680036099,9.704185057852426,0.00674071220894,0.0119959464514579,-0.0084212774848511,29.0,0.0,1791.2000000000005,0.0,-1.9999999999999571,-1.9999999999999571,0.0,0.0,,
55.6,3.018075569118782,-0.0023453964650945,9.54112687515964,0.0189636082292696,0.0050607891381513,0.0025731872318796,28.8,0.0,1794.0800000000004,0.0,-2.0000000000000284,-2.0000000000000284,0.0,0.0,,
55.7,3.0689938112812136,0.2045000859078725,9.321003397262752,0.0172846855477232,-0.004843846496065,0.0209058207261785,28.599999999999994,0.0,1796.9400000000005,0.0,-2.0000000000000284,-2.0000000000000284,0.0,0.0,,
55.8,3.324788885939989,-0.0005493234163687,9.38779975535144,-0.0024090787734607,0.0022831669237523,0.0057715649621771,28.39999999999999,0.0,1799.7800000000002,0.0,-2.0000000000000284,-2.0000000000000284,0.0,0.0,,
55.900000000000006,3.133877481220853,-0.0048447115476448,9.477495765583196,-0.0202873409441481,0.0025816811478869,-0.004797212247168,28.19999999999999,0.0,1802.6,0.0,-1.9999999999999571,-1.9999999999999571,0.0,0.0,,
56.0,3.0499493319502973,-0.2331016520666065,9.19662533644514,-0.0125544750311228,-0.0090902095763049,0.0245325913752656,28.0,0.0,1805.4,0.0,-1.9999999999999571,-1.9999999999999571,0.0,0.0,1805.6409208397642,9.852968449941145
56.1,3.144067241046817,0.0466625159402047,9.525781419101309,0.0023106518621584,-0.0027744346072599,-0.0069529376359924,27.8,0.0,1808.18,0.0,-2.0000000000000284,-2.0000000000000284,0.0,0.0,,
56.2,3.440588324672979,0.2910794965456827,9.213310407006956,-0.0092402859088637,-0.00479810342377,-0.0046453779491019,27.599999999999994,0.0,1810.94,0.0,-2.0000000000000284,-2.0000000000000284,0.0,0.0,,
56.3,3.298844025449477,-0.0892408303609919,9.790467621296347,0.0129054859434359,0.0001257403063221,0.0152698626331973,27.39999999999999,0.0,1813.68,0.0,-2.0000000000000284,-2.0000000000000284,0.0,0.0,,
56.400000000000006,3.3888342560847557,-0.0645921232087364,9.343276624444028,0.0017814306296964,0.0066163612449794,0.0063906039865341,27.19999999999999,0.0,1816.4,0.0,-1.9999999999999571,-1.9999999999999571,0.0,0.0,,
56.5,2.986399720102509,-0.1004236665926263,9.454613281586168,0.0002433439567416,0.017725421767898,-0.0088598794239899,27.0,0.0,1819.1,0.0,-1.9999999999999571,-1.9999999999999571,0.0,0.0,,
56.6,3.2987875787064787,0.2433669662492434,9.80642667293878,-0.0030439742318396,0.0029142945272019,0.0106976035719864,26.8,0.0,1821.78,0.0,-2.0000000000000284,-2.0000000000000284,0.0,0.0,,
56.7,3.252271452164091,0.005173219814104,9.531105519550366,-0.0243224608521968,0.0048206949006263,0.0062617790366196,26.599999999999994,0.0,1824.4400000000005,0.0,-2.0000000000000284,-2.0000000000000284,0.0,0.0,,
56.8,3.189577957914358,0.3270293293579336,9.364469108306777,-0.0030307598906503,0.0179155330220473,-0.0033206130484985,26.39999999999999,0.0,1827.0800000000004,0.0,-2.0000000000000284,-2.0000000000000284,0.0,0.0,,
56.900000000000006,3.140431899990678,-0.0020538135146274,9.591819383444756,0.0030780250735331,-0.0149262534715226,-0.0003216856312718,26.19999999999999,0.0,1829.7000000000005,0.0,-1.9999999999999571,-1.9999999999999571,0.0,0.0,,
57.0,3.131846027449327,0.0084168432165431,9.5295857599198,0.0051820575588797,-0.019760117540484,0.0156394098756085,26.0,0.0,1832.3,0.0,-1.9999999999999571,-1.9999999999999571,0.0,0.0,1831.5305561408754,1.2061893693344499
57.1,3.260834519330591,0.2276798071390859,9.53233896021896,0.0120132295773576,0.0026654531145012,0.0184622575620274,25.8,0.0,1834.88,0.0,-2.0000000000000284,-2.0000000000000284,0.0,0.0,,
57.2,3.301286787833764,0.0053127130335643,9.806574419192392,0.0098903712227989,0.0037374442100441,-0.0077630441653833,25.599999999999994,0.0,1837.44,0.0,-2.0000000000000284,-2.0000000000000284,0.0,0.0,,
57.3,3.029703049811567,0.063907322321278,9.487537390790596,-0.0051412256500831,-0.0005901730038793,0.0208862692804359,25.39999999999999,0.0,1839.98,0.0,-2.0000000000000284,-2.0000000000000284,0.0,0.0,,
57.400000000000006,3.3272595636137035,-0.1511512764629107,9.448982887053882,-0.0070496648085256,-0.0058769991640856,0.0008638433437035,25.19999999999999,0.0,1842.5,0.0,-1.9999999999999571,-1.9999999999999571,0.0,0.0,,
57.5,3.151302355040558,-0.1682703057960092,9.446561008897596,-0.0046060763684731,-0.0312944869000226,0.0255297202450166,25.0,0.0,1845.0,0.0,-1.9999999999999571,-1.9999999999999571,0.0,0.0,,
57.6,3.3862646405635983,-0.0364451087387494,9.468532068586448,-0.0107165434731756,0.0149572287781086,0.0239728869477311,24.8,0.0,1847.48,0.0,-2.0000000000000284,-2.0000000000000284,0.0,0.0,,
57.7,3.2464532516680764,0.1735295966278016,9.492002227965449,-0.0123672543887593,-0.0061182336896365,0.0063192796677195,24.599999999999994,0.0,1849.94,0.0,-2.0000000000000284,-2.0000000000000284,0.0,0.0,,
57.8,3.154767034619581,-0.0127979916152553,9.451999277498992,0.0001912150213453,-0.0014774150950251,-0.005606050663966,24.39999999999999,0.0,1852.38,0.0,-2.0000000000000284,-2.0000000000000284,0.0,0.0,,
57.900000000000006,3.1153967700619685,-0.1726876398549954,9.612381543578254,-0.0200564694184032,0.0095359034331692,0.0188634939726284,24.19999999999999,0.0,1854.8,0.0,-1.9999999999999571,-1.9999999999999571,0.0,0.0,,
58.0,3.1776221043837656,-0.3704705631740947,9.41151262683023,0.0003581583871118,-0.0121059821992891,-0.0001521839380824,24.0,0.0,1857.2000000000005,0.0,-1.9999999999999571,-1.9999999999999571,0.0,0.0,1857.0611529211794,-4.674712150478128
58.1,3.4524784722606,0.1197390743452611,9.327024593968645,-0.0149759916959543,-0.0052701731760977,0.0028654322064956,23.8,0.0,1859.5800000000004,0.0,-2.0000000000000284,-2.0000000000000284,0.0,0.0,,
58.2,3.297379070535595,-0.0602975068851488,9.542434147429638,0.0203515404006022,0.0061550102244426,0.0045191149266922,23.599999999999994,0.0,1861.9400000000005,0.0,-2.0000000000000284,-2.0000000000000284,0.0,0.0,,
58.3,3.1954766217731034,-0.0335009701269806,9.642805347993182,-0.005273134459513,-0.0015477729100001,0.0055119790188108,23.39999999999999,0.0,1864.28,0.0,-2.0000000000000284,-2.0000000000000284,0.0,0.0,,
58.400000000000006,3.147681563509429,-0.1858698321826151,9.514155386667976,0.0003899602814461,0.0030024046943656,-0.0003360030643916,23.19999999999999,0.0,1866.6,0.0,-1.9999999999999571,-1.9999999999999571,0.0,0.0,,
58.5,3.406072387253116,-0.1115160671817767,9.722515253728009,-0.0164763650982826,0.0023477006455689,0.0097543068252662,23.0,0.0,1868.9,0.0,-1.9999999999999571,-1.9999999999999571,0.0,0.0,,
58.6,3.1036156322399653,0.0836590906791518,9.657637011589385,-0.0211681883935406,0.0030274480749081,-0.0199327082033007,22.8,0.0,1871.18,0.0,-2.0000000000000284,-2.0000000000000284,0.0,0.0,,
58.7,3.0780994719026165,0.2643749547351418,9.378441906116551,-0.0107387996440897,-0.0039793772898468,0.0256790633816355,22.599999999999994,0.0,1873.44,0.0,-2.0000000000000284,-2.0000000000000284,0.0,0.0,,
58.8,2.9481968553501936,-0.1376964867459016,9.690323963602305,0.0195770234353773,-0.0030343122429028,-0.0073905270252664,22.39999999999999,0.0,1875.68,0.0,-2.0000000000000284,-2.0000000000000284,0.0,0.0,,
58.900000000000006,3.537325717702533,0.2591663587623795,9.567551259289658,-0.0071240234893742,-0.0024902934083803,0.0033963991895516,22.19999999999999,0.0,1877.9,0.0,-1.9999999999999571,-1.9999999999999571,0.0,0.0,,
59.0,3.272576888123496,0.2376502157197004,9.597621767295934,-0.0097737607698475,0.0117649645001953,0.0081313214001315,22.0,0.0,1880.1,0.0,-1.9999999999999571,-1.9999999999999571,0.0,0.0,1884.67129125806,3.0077321307470966
59.1,3.326009061809935,0.2399811288917904,9.298972173698326,0.0006417442129353,-0.0073145455135921,-0.0106785942536545,21.8,0.0,1882.28,0.0,-2.0000000000000284,-2.0000000000000284,0.0,0.0,,
59.2,3.2749556890718354,0.3967334827376635,9.189697549449496,0.0006771938895052,0.0044054293507477,0.0062307820165618,21.599999999999994,0.0,1884.4400000000005,0.0,-2.0000000000000284,-2.0000000000000284,0.0,0.0,,
59.3,3.2059799845537365,-0.1748824545168736,9.500627222566385,-0.0065676397701592,-0.0238992170497855,0.0169459222051373,21.39999999999999,0.0,1886.5800000000004,0.0,-2.0000000000000284,-2.0000000000000284,0.0,0.0,,
59.400000000000006,3.366707065407465,0.0277491465276619,9.50007041435618,0.0117431801271556,0.0002433965677808,0.0140401755476131,21.19999999999999,0.0,1888.7000000000005,0.0,-1.9999999999999571,-1.9999999999999571,0.0,0.0,,
59.5,3.1783268623000813,0.2167975607860919,9.513827070015228,0.0029405194360587,-0.0147006108871203,0.007869558543017,21.0,0.0,1890.8,0.0,-1.9999999999999571,-1.9999999999999571,0.0,0.0,,
59.6,3.0981559548069297,-0.0757424089792741,9.34340286687794,-0.0096623493189922,0.0192477140301696,0.018313390619884,20.8,0.0,1892.88,0.0,-2.0000000000000284,-2.0000000000000284,0.0,0.0,,
59.7,3.511004317752737,-0.1634342529333345,9.476397273611994,-0.0119350762520409,-0.0089569487719706,-0.0041812698341657,20.599999999999994,0.0,1894.94,0.0,-2.0000000000000284,-2.0000000000000284,0.0,0.0,,
59.8,3.408886793397332,-0.0394344517152639,9.625966111179462,0.0070412088958851,0.0210363875210478,-0.0097944422313972,20.39999999999999,0.0,1896.98,0.0,-2.0000000000000284,-2.0000000000000284,0.0,0.0,,
59.900000000000006,3.411834178399179,0.1919661305601091,9.31970238542127,0.0110713333647315,0.0013614496302622,0.0027252374004659,20.19999999999999,0.0,1899.0,0.0,-1.9999999999999571,-1.9999999999999571,0.0,0.0,,
60.0,3.099358869385359,-0.0878664177173778,9.773181025493212,0.0010068281895748,0.0058213000153145,-0.0029089938166755,20.0,0.0,1901.0,0.0,-1.9999999999999571,-1.9999999999999571,0.0,0.0,1904.1641277881722,-3.6375498191789557
60.1,3.105971250497852,0.1822977213874913,9.26327277939263,-0.0031521376790527,-0.0016597258892776,0.0061137260184005,19.8,0.0,1902.98,0.0,-2.0000000000000284,-2.0000000000000284,0.0,0.0,,
60.2,3.196085199678674,0.0793729671643884,9.569637574498032,0.0083463754545933,-0.0118580380866782,0.002158449020712,19.599999999999994,0.0,1904.94,0.0,-2.0000000000000284,-2.0000000000000284,0.0,0.0,,
60.3,3.402163621712638,0.1541970781360808,9.2597802934032,0.004514799003522,-0.0217822524937481,0.0054693490206036,19.39999999999999,0.0,1906.88,0.0,-2.0000000000000284,-2.0000000000000284,0.0,0.0,,
60.400000000000006,3.5076142449430554,-0.1221839075903479,9.340560754301586,0.0086402978157285,-0.0174280151520964,-0.0013275502988503,19.19999999999999,0.0,1908.8,0.0,-1.9999999999999571,-1.9999999999999571,0.0,0.0,,
60.5,3.3124153630684217,-0.0751428771534104,9.430313713043676,0.0084418571031503,0.0022154608353656,0.007668183962954,19.0,0.0,1910.7000000000005,0.0,-1.9999999999999571,-1.9999999999999571,0.0,0.0,,
60.6,3.172080850540592,0.0755091672903433,9.447149309110396,0.0055780560992578,-0.0069693202511797,0.0031743102562045,18.8,0.0,1912.5800000000004,0.0,-2.0000000000000284,-2.0000000000000284,0.0,0.0,,
60.7,3.0744555235482958,0.0147488584990646,9.344059081581031,-0.0101404645016199,0.0005866114785538,0.0071273977585766,18.599999999999994,0.0,1914.4400000000005,0.0,-2.0000000000000284,-2.0000000000000284,0.0,0.0,,
60.8,3.3403802526733832,-0.0446688354362648,9.526917138150871,0.0065079757227366,0.0024477380783159,-0.0032565368280214,18.39999999999999,0.0,1916.28,0.0,-2.0000000000000284,-2.0000000000000284,0.0,0.0,,
60.900000000000006,3.245353714771837,0.0746210444081992,9.466785981161514,-0.0198647765837108,-0.0003951037602651,0.0271253103939724,18.19999999999999,0.0,1918.1,0.0,-1.9999999999999571,-1.9999999999999571,0.0,0.0,,
61.0,3.1689433021176114,-0.0892115646782981,9.521711495082034,0.0041237821046657,0.0099273516541641,-0.0075786815590888,18.0,0.0,1919.9,0.0,-1.9999999999999571,-1.9999999999999571,0.0,0.0,1925.5111772437444,-5.6074042511691236
61.1,3.3326562303173466,0.1085633091877195,9.444387230584278,0.0043868731792168,0.0082945748159835,0.0137231538002845,17.799999999999997,0.0,1921.68,0.0,-2.0000000000000284,-2.0000000000000284,0.0,0.0,,
61.2,3.0514962956200384,0.1430237280133226,9.45600592037048,0.0017287409801551,-0.001268030089983,0.0034975701120174,17.599999999999994,0.0,1923.44,0.0,-2.0000000000000284,-2.0000000000000284,0.0,0.0,,
61.3,3.401705316997157,0.0074423060226181,9.297777291867884,-0.0029352985596972,-0.0002130528318952,0.0172921478429705,17.39999999999999,0.0,1925.18,0.0,-2.0000000000000284,-2.0000000000000284,0.0,0.0,,
61.400000000000006,3.313413395173484,-0.1075802918120565,9.838487698627157,0.0036477531097797,0.0107539073799901,0.0034828556642277,17.19999999999999,0.0,1926.9,0.0,-1.9999999999999571,-1.9999999999999571,0.0,0.0,,
61.5,3.302953079136976,0.1459202756777607,9.648438417888462,0.0115736830537822,0.0067219700007297,0.0018491326880589,17.0,0.0,1928.6,0.0,-1.9999999999999571,-1.9999999999999571,0.0,0.0,,
61.6,3.137187286137688,0.0698911265486296,9.60567842197652,-0.001227207007766,0.0086517196571438,0.0195261674548617,16.799999999999997,0.0,1930.28,0.0,-2.0000000000000284,-2.0000000000000284,0.0,0.0,,
61.7,3.0855010545700847,-0.1055381055694419,9.44465295228956,0.0040761266818919,-0.0072456701376705,0.0185220267886714,16.599999999999994,0.0,1931.9400000000005,0.0,-2.0000000000000284,-2.0000000000000284,0.0,0.0,,
61.8,3.286559221658865,0.0259170572361109,9.25032278254508,-0.012158158164275,0.000810092502818,-0.0163259562615483,16.39999999999999,0.0,1933.5800000000004,0.0,-2.0000000000000284,-2.0000000000000284,0.0,0.0,,
61.900000000000006,3.3748448038777696,-0.003723076655848,9.952173156564534,0.0240791625061611,-0.0038144906924751,0.0039366299746868,16.19999999999999,0.0,1935.2000000000005,0.0,-1.9999999999999571,-1.9999999999999571,0.0,0.0,,
62.0,3.3722864195314632,0.2754758914877057,9.220004852509922,-0.0168637546535468,-0.0082203480555438,0.0108273758317386,16.0,0.0,1936.8,0.0,-1.9999999999999571,-1.9999999999999571,0.0,0.0,1939.1474283752011,8.761822503239914
62.1,3.297480231007237,0.1804657182475775,9.285754581870563,-0.0221614386296887,0.0065801419530214,-0.0032819627296523,15.799999999999995,0.0,1938.38,0.0,-2.0000000000000284,-2.0000000000000284,0.0,0.0,,
62.2,2.920176012772802,0.0417595618939072,9.58468556435816,-0.0002205713212127,-0.0065784838618248,0.0034063776785409,15.599999999999994,0.0,1939.94,0.0,-2.0000000000000284,-2.0000000000000284,0.0,0.0,,
62.3,3.16736177807098,-0.182207066791025,9.358507109576797,0.0062127990501381,0.001216785413765,0.0066805980596682,15.399999999999991,0.0,1941.48,0.0,-2.0000000000000284,-2.0000000000000284,0.0,0.0,,
62.400000000000006,3.073676920153152,-0.00722547432035,9.139149454158895,0.0027847666388538,0.0122885770781356,-0.009741321320421,15.199999999999989,0.0,1943.0,0.0,-1.9999999999999571,-1.9999999999999571,0.0,0.0,,
62.5,3.1350600414334955,0.0693660168065194,9.653635606289448,-0.0034822461630014,-0.0089225032926589,-0.0146892314241608,15.0,0.0,1944.5,0.0,-1.9999999999999571,-1.9999999999999571,0.0,0.0,,
62.6,3.2384649118273137,0.3263114060215616,9.50731298042006,0.0007772102081628,0.0012208231076698,0.0048890799605139,14.799999999999995,0.0,1945.98,0.0,-2.0000000000000284,-2.0000000000000284,0.0,0.0,,
62.7,3.1009970365920783,0.1434919873516557,9.499573439592124,0.0011761325193365,-0.0117536602727825,0.0180350793193475,14.599999999999994,0.0,1947.44,0.0,-2.0000000000000284,-2.0000000000000284,0.0,0.0,,
62.8,3.322654604231064,-0.0629381256050952,9.61598293917765,-0.003975708383852,-0.0098200349251103,-0.0025970311748028,14.399999999999991,0.0,1948.88,0.0,-2.0000000000000284,-2.0000000000000284,0.0,0.0,,
62.900000000000006,2.957288909467945,0.0907313570627308,9.191037479374572,-0.0112844383126576,-0.0227558800907853,0.004139303072091,14.199999999999989,0.0,1950.3,0.0,-1.9999999999999571,-1.9999999999999571,0.0,0.0,,
63.0,3.200401123390378,-0.0290044319779546,9.309322556924736,-0.0107223375343664,0.0026436986354657,-0.0005055193170848,14.0,0.0,1951.7000000000005,0.0,-1.9999999999999571,-1.9999999999999571,0.0,0.0,1947.7378546994778,-2.2651909184110877
63.1,3.270402940661519,-0.1127873029186333,9.49286862254102,0.0140327803731606,0.0038616580039278,0.0008758618178351,13.799999999999995,0.0,1953.0800000000004,0.0,-2.0000000000000284,-2.0000000000000284,0.0,0.0,,
63.2,3.2615290379844866,-0.0160997761795319,9.466891238829568,-0.002256110521485,-0.0036433520588539,0.0071209335307417,13.599999999999994,0.0,1954.4400000000005,0.0,-2.0000000000000284,-2.0000000000000284,0.0,0.0,,
63.3,3.073945387493805,-0.1323818240484967,9.25742782805068,-0.015002711045037,-0.0141728269222047,0.0065946250680412,13.399999999999991,0.0,1955.78,0.0,-2.0000000000000284,-2.0000000000000284,0.0,0.0,,
63.400000000000006,3.089031065107376,0.0970421696346644,9.470916273438208,-0.0186850421343805,0.0045497558422168,0.013107986455917,13.199999999999989,0.0,1957.1,0.0,-1.9999999999999571,-1.9999999999999571,0.0,0.0,,
63.5,3.0738697912059307,0.0830287314342487,9.337234475513943,0.0019767037674833,-0.0146449840695496,-0.0129310645253457,13.0,0.0,1958.4,0.0,-1.9999999999999571,-1.9999999999999571,0.0,0.0,,
63.6,3.165526613989152,0.0014406580587745,9.40605725708317,-0.0108403055822255,-0.0059989906213113,0.0076929475258073,12.799999999999995,0.0,1959.68,0.0,-2.0000000000000284,-2.0000000000000284,0.0,0.0,,
63.7,3.216215237912717,0.047375154589882,9.365191931057224,0.0127171791471615,-0.0137617333655478,0.0098756029708671,12.599999999999994,0.0,1960.94,0.0,-2.0000000000000284,-2.0000000000000284,0.0,0.0,,
63.8,3.400232856375092,0.0921362139123343,9.435330577065637,-0.0042829704666297,0.0083608765104625,-0.0092297492526167,12.399999999999991,0.0,1962.18,0.0,-2.0000000000000284,-2.0000000000000284,0.0,0.0,,
63.900000000000006,3.0774305533742123,-0.0396336648237582,9.651357274752124,0.0047976763604089,-0.0116804575851024,0.0018969229461509,12.199999999999989,0.0,1963.4,0.0,-1.9999999999999571,-1.9999999999999571,0.0,0.0,,
64.0,3.1308007208166533,-0.0864683488350302,9.612542644908876,-0.012717431292635,0.0140878085573437,0.0132822969018462,12.0,0.0,1964.6,0.0,-2.0000000000000284,-2.0000000000000284,0.0,0.0,1964.9986054603505,-2.013902616464797
64.10000000000001,3.3865784430216523,-0.0494409268037887,9.443218103263494,-0.0133315181452471,-0.007246624070668,0.0099365484764315,11.799999999999985,0.0,1965.78,0.0,-2.0000000000000284,-2.0000000000000284,0.0,0.0,,
64.2,3.41735865169843,-0.1460735225203677,9.4108833205775,-0.0005129922023252,-0.0159578920219248,0.010913492417584,11.599999999999994,0.0,1966.9400000000005,0.0,-1.9999999999998863,-1.9999999999998863,0.0,0.0,,
64.3,3.1143506426697063,-0.0093085526765535,9.397916805338578,-0.0068933850571967,-0.0020704498548055,0.0028439042143197,11.400000000000006,0.0,1968.0800000000004,0.0,-2.0000000000000284,-2.0000000000000284,0.0,0.0,,
64.4,3.167170510089297,-0.0892692432520514,9.513637911742803,0.0175361726849228,-0.0006011276716087,0.0149611821491112,11.199999999999989,0.0,1969.2000000000005,0.0,-2.0000000000000284,-2.0000000000000284,0.0,0.0,,
64.5,3.014415903658078,0.0436642158940654,9.3011039632797,-0.013769249275319,-0.0093937140745903,0.0169189933441357,11.0,0.0,1970.3,0.0,-2.0000000000000284,-2.0000000000000284,0.0,0.0,,
64.60000000000001,3.365451566731545,0.0564507083081599,9.23580412714187,-0.0009628065138793,0.0010170000890173,0.0067553622957859,10.799999999999985,0.0,1971.38,0.0,-2.0000000000000284,-2.0000000000000284,0.0,0.0,,
64.7,2.9463801549091087,-0.1135476772029807,9.45609754650298,0.0063629090951719,-0.0239612782109994,0.0033787602452014,10.599999999999994,0.0,1972.44,0.0,-1.9999999999998863,-1.9999999999998863,0.0,0.0,,
64.8,3.2444065079129403,0.1474417982774319,9.569637848760976,0.006825713188088,-0.0099994050670193,-0.014080021371233,10.400000000000006,0.0,1973.48,0.0,-2.0000000000000284,-2.0000000000000284,0.0,0.0,,
64.9,3.163991278871888,0.170244773781284,9.674727390254024,0.0081054910229778,0.0022934082280173,0.0087963964838596,10.199999999999989,0.0,1974.5,0.0,-2.0000000000000284,-2.0000000000000284,0.0,0.0,,
65.0,4.0055567842014925,0.0004909559669569,9.216069639999269,-0.0084255800579187,0.0141477879070985,0.0017797184550794,10.0,0.0,1975.5,0.0,-0.9999999999999432,-0.9999999999999432,0.0,0.0,1969.2973462757354,0.2742518992241093
65.10000000000001,5.153814816364261,-0.1910222514246307,8.553594841300043,-0.0063677013594762,-0.0161526719192418,0.0071853404241094,10.0,0.0,1976.5,0.0,0.0,0.0,0.0,0.0,,
65.2,5.106420768289395,-0.1067412157890244,8.240856817056585,8.155235665044868e-05,-0.0028743532877718,0.0104831962755449,10.0,0.0,1977.5,0.0,0.0,0.0,0.0,0.0,,
65.3,5.097439185704673,0.0110877228091258,8.744034708344484,0.0032423474453529,-0.0054642650600689,-0.0111156735910282,10.0,0.0,1978.5,0.0,0.0,0.0,0.0,0.0,,
65.4,4.915601071952574,-0.0304580418116704,8.609754930567565,0.0056248362406685,-0.0137936912163261,0.0067225438641103,10.0,0.0,1979.5,0.0,0.0,0.0,0.0,0.0,,
65.5,5.055729675759357,0.2492047039081749,8.598834806237454,0.0086084665431147,-0.0013991400538483,0.0088831200542344,10.0,0.0,1980.5,0.0,0.0,0.0,0.0,0.0,,
65.60000000000001,5.142425735105923,-0.1799166096219474,8.413293312042802,-0.0067256874875624,0.0017915311872612,0.0173022217565078,10.0,0.0,1981.5,0.0,0.0,0.0,0.0,0.0,,
65.7,4.865453856991838,-0.3385456551204157,8.403876099371674,0.010134737320174,0.0033762990294987,0.0092818624781057,10.0,0.0,1982.5,0.0,0.0,0.0,0.0,0.0,,
65.8,4.913001004718828,-0.1718546104329679,8.543003359369015,-0.0073428181003462,0.0198409673338045,0.0107050720835451,10.0,0.0,1983.5,0.0,0.0,0.0,0.0,0.0,,
